submission_id,response1,startDate,context_picture,experiment_id,picture2,correct1,question1,problems,enjoyment,hit_id,item,botresponse,assignment_id,correct2,understand,text,condition,sentence,age,response,comments,picture1,response3,education,worker_id,languages,sex,RT,correct3,context,trial_number,startTime,attempts,picture,question3,fairprice,question2,size,response2,trial_name
267,parrot,Thu Aug 08 2019 13:28:56 GMT-0700 (Pacific Daylight Time),NA,7,warmup/eagle.jpg,hummingbird,This is a ,,1,3DZKABX2ZITX9NOG2TPGYBNW9CYCV1,birds,patricia,3GA6AFUKOPC716V6UD2DEROHHINH3V,eagle,yes,Please label the pictures below.,NA,NA,32,NA,,warmup/colibri.jpg,birds,graduated_college,A26M997VYVK0E6,english,male,NA,birds,NA,1,1565296136046,1,NA,This is an ,1.50,These are both,NA,eagle,warmup1
267,hummingbird,Thu Aug 08 2019 13:28:56 GMT-0700 (Pacific Daylight Time),NA,7,warmup/eagle.jpg,hummingbird,This is a ,,1,3DZKABX2ZITX9NOG2TPGYBNW9CYCV1,birds,patricia,3GA6AFUKOPC716V6UD2DEROHHINH3V,eagle,yes,Please label the pictures below.,NA,NA,32,NA,,warmup/colibri.jpg,birds,graduated_college,A26M997VYVK0E6,english,male,NA,birds,NA,1,1565296136046,2,NA,This is an ,1.50,These are both,NA,eagle,warmup1
267,gease,Thu Aug 08 2019 13:28:56 GMT-0700 (Pacific Daylight Time),NA,7,warmup/canary.jpg,swan,This is a ,,1,3DZKABX2ZITX9NOG2TPGYBNW9CYCV1,birds,patricia,3GA6AFUKOPC716V6UD2DEROHHINH3V,canary,yes,Please label the pictures below.,NA,NA,32,NA,,warmup/swan.jpg,birds,graduated_college,A26M997VYVK0E6,english,male,NA,birds,NA,2,1565296136046,1,NA,This is a ,1.50,These are both,NA,chick,warmup1
267,swan,Thu Aug 08 2019 13:28:56 GMT-0700 (Pacific Daylight Time),NA,7,warmup/canary.jpg,swan,This is a ,,1,3DZKABX2ZITX9NOG2TPGYBNW9CYCV1,birds,patricia,3GA6AFUKOPC716V6UD2DEROHHINH3V,canary,yes,Please label the pictures below.,NA,NA,32,NA,,warmup/swan.jpg,birds,graduated_college,A26M997VYVK0E6,english,male,NA,birds,NA,2,1565296136046,2,NA,This is a ,1.50,These are both,NA,canary,warmup1
267,tree,Thu Aug 08 2019 13:28:56 GMT-0700 (Pacific Daylight Time),NA,7,warmup/bonsai.jpg,redwood|sequoia,This is a ,,1,3DZKABX2ZITX9NOG2TPGYBNW9CYCV1,trees,patricia,3GA6AFUKOPC716V6UD2DEROHHINH3V,bonsai,yes,Please label the pictures below.,NA,NA,32,NA,,warmup/sequoia.jpg,plants,graduated_college,A26M997VYVK0E6,english,male,NA,trees,NA,3,1565296136046,1,NA,This is a ,1.50,These are both,NA,plant,warmup1
267,redwood,Thu Aug 08 2019 13:28:56 GMT-0700 (Pacific Daylight Time),NA,7,warmup/bonsai.jpg,redwood|sequoia,This is a ,,1,3DZKABX2ZITX9NOG2TPGYBNW9CYCV1,trees,patricia,3GA6AFUKOPC716V6UD2DEROHHINH3V,bonsai,yes,Please label the pictures below.,NA,NA,32,NA,,warmup/sequoia.jpg,trees,graduated_college,A26M997VYVK0E6,english,male,NA,trees,NA,3,1565296136046,2,NA,This is a ,1.50,These are both,NA,bonsai,warmup1
267,NA,Thu Aug 08 2019 13:28:56 GMT-0700 (Pacific Daylight Time),images/bird-parade2.png,7,NA,NA,That's a big ,,1,3DZKABX2ZITX9NOG2TPGYBNW9CYCV1,birds,patricia,3GA6AFUKOPC716V6UD2DEROHHINH3V,NA,yes,This one is also in the parade.,prenominal,You say to your friend:,32,bird,,NA,NA,graduated_college,A26M997VYVK0E6,english,male,,NA,You see a parade of animals.,1,1565296136046,NA,images/eagle.png,NA,1.50,,big,NA,main1
267,NA,Thu Aug 08 2019 13:28:56 GMT-0700 (Pacific Daylight Time),images/bird-parade3.png,7,NA,NA,That's a big ,,1,3DZKABX2ZITX9NOG2TPGYBNW9CYCV1,birds,patricia,3GA6AFUKOPC716V6UD2DEROHHINH3V,NA,yes,This one is also in the parade.,prenominal,You say to your friend:,32,swan,,NA,NA,graduated_college,A26M997VYVK0E6,english,male,,NA,You see a parade of animals.,2,1565296136046,NA,images/swan.png,NA,1.50,,big,NA,main1
267,NA,Thu Aug 08 2019 13:28:56 GMT-0700 (Pacific Daylight Time),images/tree-parade.png,7,NA,NA,That's a small ,,1,3DZKABX2ZITX9NOG2TPGYBNW9CYCV1,trees,patricia,3GA6AFUKOPC716V6UD2DEROHHINH3V,NA,yes,This one is also in the landscape.,prenominal,You say to your friend:,32,tree,,NA,NA,graduated_college,A26M997VYVK0E6,english,male,,NA,You see the following items in a landscape.,3,1565296136046,NA,images/bonsai.png,NA,1.50,,small,NA,main1
267,bulldog,Thu Aug 08 2019 13:28:56 GMT-0700 (Pacific Daylight Time),NA,7,warmup/great-dane.jpg,pug,This is a ,,1,3DZKABX2ZITX9NOG2TPGYBNW9CYCV1,dogs,patricia,3GA6AFUKOPC716V6UD2DEROHHINH3V,great dane,yes,Please label the pictures below.,NA,NA,32,NA,,warmup/pug.jpg,dogs,graduated_college,A26M997VYVK0E6,english,male,NA,dogs,NA,1,1565296136046,1,NA,This is a ,1.50,These are both,NA,canine,warmup2
267,pug,Thu Aug 08 2019 13:28:56 GMT-0700 (Pacific Daylight Time),NA,7,warmup/great-dane.jpg,pug,This is a ,,1,3DZKABX2ZITX9NOG2TPGYBNW9CYCV1,dogs,patricia,3GA6AFUKOPC716V6UD2DEROHHINH3V,great dane,yes,Please label the pictures below.,NA,NA,32,NA,,warmup/pug.jpg,dogs,graduated_college,A26M997VYVK0E6,english,male,NA,dogs,NA,1,1565296136046,2,NA,This is a ,1.50,These are both,NA,great dane,warmup2
267,dolphin,Thu Aug 08 2019 13:28:56 GMT-0700 (Pacific Daylight Time),NA,7,warmup/goldfish.png,swordfish,This is a ,,1,3DZKABX2ZITX9NOG2TPGYBNW9CYCV1,fish,patricia,3GA6AFUKOPC716V6UD2DEROHHINH3V,goldfish,yes,Please label the pictures below.,NA,NA,32,NA,,warmup/swordfish.jpg,fish,graduated_college,A26M997VYVK0E6,english,male,NA,fish,NA,2,1565296136046,1,NA,This is a ,1.50,These are both,NA,fish,warmup2
267,swordfish,Thu Aug 08 2019 13:28:56 GMT-0700 (Pacific Daylight Time),NA,7,warmup/goldfish.png,swordfish,This is a ,,1,3DZKABX2ZITX9NOG2TPGYBNW9CYCV1,fish,patricia,3GA6AFUKOPC716V6UD2DEROHHINH3V,goldfish,yes,Please label the pictures below.,NA,NA,32,NA,,warmup/swordfish.jpg,fish,graduated_college,A26M997VYVK0E6,english,male,NA,fish,NA,2,1565296136046,2,NA,This is a ,1.50,These are both,NA,goldfish,warmup2
267,rose,Thu Aug 08 2019 13:28:56 GMT-0700 (Pacific Daylight Time),NA,7,warmup/peony.png,daisy,This is a ,,1,3DZKABX2ZITX9NOG2TPGYBNW9CYCV1,flowers,patricia,3GA6AFUKOPC716V6UD2DEROHHINH3V,peony,yes,Please label the pictures below.,NA,NA,32,NA,,warmup/daisy.png,roses,graduated_college,A26M997VYVK0E6,english,male,NA,flowers,NA,3,1565296136046,1,NA,This is a ,1.50,These are both,NA,rose,warmup2
267,daisy,Thu Aug 08 2019 13:28:56 GMT-0700 (Pacific Daylight Time),NA,7,warmup/peony.png,daisy,This is a ,,1,3DZKABX2ZITX9NOG2TPGYBNW9CYCV1,flowers,patricia,3GA6AFUKOPC716V6UD2DEROHHINH3V,peony,yes,Please label the pictures below.,NA,NA,32,NA,,warmup/daisy.png,flowers,graduated_college,A26M997VYVK0E6,english,male,NA,flowers,NA,3,1565296136046,2,NA,This is a ,1.50,These are both,NA,peony,warmup2
267,NA,Thu Aug 08 2019 13:28:56 GMT-0700 (Pacific Daylight Time),images/dog-parade2.png,7,NA,NA,That's a small ,,1,3DZKABX2ZITX9NOG2TPGYBNW9CYCV1,dogs,patricia,3GA6AFUKOPC716V6UD2DEROHHINH3V,NA,yes,This one is also in the parade.,prenominal,You say to your friend:,32,dog,,NA,NA,graduated_college,A26M997VYVK0E6,english,male,,NA,You see a parade of animals.,1,1565296136046,NA,images/pug.png,NA,1.50,,small,NA,main2
267,NA,Thu Aug 08 2019 13:28:56 GMT-0700 (Pacific Daylight Time),images/flower-parade.png,7,NA,NA,That's a big ,,1,3DZKABX2ZITX9NOG2TPGYBNW9CYCV1,flowers,patricia,3GA6AFUKOPC716V6UD2DEROHHINH3V,NA,yes,This one is also in the collection.,prenominal,You say to your friend:,32,flower,,NA,NA,graduated_college,A26M997VYVK0E6,english,male,,NA,You see a collection of plants.,2,1565296136046,NA,images/peony.png,NA,1.50,,big,NA,main2
267,NA,Thu Aug 08 2019 13:28:56 GMT-0700 (Pacific Daylight Time),images/fish-parade.png,7,NA,NA,That's a small ,,1,3DZKABX2ZITX9NOG2TPGYBNW9CYCV1,fish,patricia,3GA6AFUKOPC716V6UD2DEROHHINH3V,NA,yes,This one is also in the parade.,prenominal,You say to your friend:,32,fish,,NA,NA,graduated_college,A26M997VYVK0E6,english,male,,NA,You see a parade of animals.,3,1565296136046,NA,images/goldfish.png,NA,1.50,,small,NA,main2
266,daisy,Thu Aug 08 2019 16:24:17 GMT-0400 (Eastern Daylight Time),NA,7,warmup/peony.png,daisy,This is a ,no,2,3DZKABX2ZITX9NOG2TPGYBNW9CYCV1,flowers,linda,3I7DHKZYGOOQ1PR4D626Q3AOFZ1F5L,peony,yes,Please label the pictures below.,NA,NA,44,NA,no comments,warmup/daisy.png,flowers,some_college,A3CWEIEY3TGJFX,English,male,NA,flowers,NA,1,1565295857704,1,NA,This is a ,1.10,These are both,NA,rose,warmup1
266,daisy,Thu Aug 08 2019 16:24:17 GMT-0400 (Eastern Daylight Time),NA,7,warmup/peony.png,daisy,This is a ,no,2,3DZKABX2ZITX9NOG2TPGYBNW9CYCV1,flowers,linda,3I7DHKZYGOOQ1PR4D626Q3AOFZ1F5L,peony,yes,Please label the pictures below.,NA,NA,44,NA,no comments,warmup/daisy.png,flowers,some_college,A3CWEIEY3TGJFX,English,male,NA,flowers,NA,1,1565295857704,2,NA,This is a ,1.10,These are both,NA,peony,warmup1
266,dandelion,Thu Aug 08 2019 16:24:17 GMT-0400 (Eastern Daylight Time),NA,7,warmup/sunflower.png,dandelion,This is a ,no,2,3DZKABX2ZITX9NOG2TPGYBNW9CYCV1,flowers,linda,3I7DHKZYGOOQ1PR4D626Q3AOFZ1F5L,sunflower,yes,Please label the pictures below.,NA,NA,44,NA,no comments,warmup/dandelion.jpg,flowers,some_college,A3CWEIEY3TGJFX,English,male,NA,flowers,NA,2,1565295857704,1,NA,This is a ,1.10,These are both,NA,sunflower,warmup1
266,fish,Thu Aug 08 2019 16:24:17 GMT-0400 (Eastern Daylight Time),NA,7,warmup/clownfish.jpg,tuna,This is a ,no,2,3DZKABX2ZITX9NOG2TPGYBNW9CYCV1,fish,linda,3I7DHKZYGOOQ1PR4D626Q3AOFZ1F5L,clownfish,yes,Please label the pictures below.,NA,NA,44,NA,no comments,warmup/tuna.jpg,fish,some_college,A3CWEIEY3TGJFX,English,male,NA,fish,NA,3,1565295857704,1,NA,This is a ,1.10,These are both,NA,fish,warmup1
266,tuna,Thu Aug 08 2019 16:24:17 GMT-0400 (Eastern Daylight Time),NA,7,warmup/clownfish.jpg,tuna,This is a ,no,2,3DZKABX2ZITX9NOG2TPGYBNW9CYCV1,fish,linda,3I7DHKZYGOOQ1PR4D626Q3AOFZ1F5L,clownfish,yes,Please label the pictures below.,NA,NA,44,NA,no comments,warmup/tuna.jpg,fish,some_college,A3CWEIEY3TGJFX,English,male,NA,fish,NA,3,1565295857704,2,NA,This is a ,1.10,These are both,NA,clownfish,warmup1
266,NA,Thu Aug 08 2019 16:24:17 GMT-0400 (Eastern Daylight Time),images/flower-parade.png,7,NA,NA,That's a small ,no,2,3DZKABX2ZITX9NOG2TPGYBNW9CYCV1,flowers,linda,3I7DHKZYGOOQ1PR4D626Q3AOFZ1F5L,NA,yes,This one is also in the collection.,prenominal,You say to your friend:,44,flower,no comments,NA,NA,some_college,A3CWEIEY3TGJFX,English,male,,NA,You see a collection of plants.,1,1565295857704,NA,images/daisy.png,NA,1.10,,small,NA,main1
266,NA,Thu Aug 08 2019 16:24:17 GMT-0400 (Eastern Daylight Time),images/fish-parade2.png,7,NA,NA,That's a big ,no,2,3DZKABX2ZITX9NOG2TPGYBNW9CYCV1,fish,linda,3I7DHKZYGOOQ1PR4D626Q3AOFZ1F5L,NA,yes,This one is also in the parade.,prenominal,You say to your friend:,44,tuna,no comments,NA,NA,some_college,A3CWEIEY3TGJFX,English,male,,NA,You see a parade of animals.,2,1565295857704,NA,images/tuna.png,NA,1.10,,big,NA,main1
266,NA,Thu Aug 08 2019 16:24:17 GMT-0400 (Eastern Daylight Time),images/flower-parade2.png,7,NA,NA,That's a big ,no,2,3DZKABX2ZITX9NOG2TPGYBNW9CYCV1,flowers,linda,3I7DHKZYGOOQ1PR4D626Q3AOFZ1F5L,NA,yes,This one is also in the collection.,prenominal,You say to your friend:,44,sunflower,no comments,NA,NA,some_college,A3CWEIEY3TGJFX,English,male,,NA,You see a collection of plants.,3,1565295857704,NA,images/sunflower.png,NA,1.10,,big,NA,main1
266,swan,Thu Aug 08 2019 16:24:17 GMT-0400 (Eastern Daylight Time),NA,7,warmup/canary.jpg,swan,This is a ,no,2,3DZKABX2ZITX9NOG2TPGYBNW9CYCV1,birds,linda,3I7DHKZYGOOQ1PR4D626Q3AOFZ1F5L,canary,yes,Please label the pictures below.,NA,NA,44,NA,no comments,warmup/swan.jpg,birds,some_college,A3CWEIEY3TGJFX,English,male,NA,birds,NA,1,1565295857704,1,NA,This is a ,1.10,These are both,NA,canary,warmup2
266,pug,Thu Aug 08 2019 16:24:17 GMT-0400 (Eastern Daylight Time),NA,7,warmup/great-dane.jpg,pug,This is a ,no,2,3DZKABX2ZITX9NOG2TPGYBNW9CYCV1,dogs,linda,3I7DHKZYGOOQ1PR4D626Q3AOFZ1F5L,great dane,yes,Please label the pictures below.,NA,NA,44,NA,no comments,warmup/pug.jpg,dogs,some_college,A3CWEIEY3TGJFX,English,male,NA,dogs,NA,2,1565295857704,1,NA,This is a ,1.10,These are both,NA,greyhound,warmup2
266,pug,Thu Aug 08 2019 16:24:17 GMT-0400 (Eastern Daylight Time),NA,7,warmup/great-dane.jpg,pug,This is a ,no,2,3DZKABX2ZITX9NOG2TPGYBNW9CYCV1,dogs,linda,3I7DHKZYGOOQ1PR4D626Q3AOFZ1F5L,great dane,yes,Please label the pictures below.,NA,NA,44,NA,no comments,warmup/pug.jpg,dogs,some_college,A3CWEIEY3TGJFX,English,male,NA,dogs,NA,2,1565295857704,2,NA,This is a ,1.10,These are both,NA,great dane,warmup2
266,swordfish,Thu Aug 08 2019 16:24:17 GMT-0400 (Eastern Daylight Time),NA,7,warmup/goldfish.png,swordfish,This is a ,no,2,3DZKABX2ZITX9NOG2TPGYBNW9CYCV1,fish,linda,3I7DHKZYGOOQ1PR4D626Q3AOFZ1F5L,goldfish,yes,Please label the pictures below.,NA,NA,44,NA,no comments,warmup/swordfish.jpg,fish,some_college,A3CWEIEY3TGJFX,English,male,NA,fish,NA,3,1565295857704,1,NA,This is a ,1.10,These are both,NA,goldfish,warmup2
266,NA,Thu Aug 08 2019 16:24:17 GMT-0400 (Eastern Daylight Time),images/dog-parade2.png,7,NA,NA,That's a small ,no,2,3DZKABX2ZITX9NOG2TPGYBNW9CYCV1,dogs,linda,3I7DHKZYGOOQ1PR4D626Q3AOFZ1F5L,NA,yes,This one is also in the parade.,prenominal,You say to your friend:,44,pug,no comments,NA,NA,some_college,A3CWEIEY3TGJFX,English,male,,NA,You see a parade of animals.,1,1565295857704,NA,images/pug.png,NA,1.10,,small,NA,main2
266,NA,Thu Aug 08 2019 16:24:17 GMT-0400 (Eastern Daylight Time),images/bird-parade3.png,7,NA,NA,That's a small ,no,2,3DZKABX2ZITX9NOG2TPGYBNW9CYCV1,birds,linda,3I7DHKZYGOOQ1PR4D626Q3AOFZ1F5L,NA,yes,This one is also in the parade.,prenominal,You say to your friend:,44,canary,no comments,NA,NA,some_college,A3CWEIEY3TGJFX,English,male,,NA,You see a parade of animals.,2,1565295857704,NA,images/canary.png,NA,1.10,,small,NA,main2
266,NA,Thu Aug 08 2019 16:24:17 GMT-0400 (Eastern Daylight Time),images/fish-parade.png,7,NA,NA,That's a small ,no,2,3DZKABX2ZITX9NOG2TPGYBNW9CYCV1,fish,linda,3I7DHKZYGOOQ1PR4D626Q3AOFZ1F5L,NA,yes,This one is also in the parade.,prenominal,You say to your friend:,44,goldfish,no comments,NA,NA,some_college,A3CWEIEY3TGJFX,English,male,,NA,You see a parade of animals.,3,1565295857704,NA,images/goldfish.png,NA,1.10,,small,NA,main2
265,swordfish,Thu Aug 08 2019 15:04:02 GMT-0500 (Central Daylight Time),NA,7,warmup/goldfish.png,swordfish,This is a ,No,1,3DZKABX2ZITX9NOG2TPGYBNW9CYCV1,fish,Linda,352YTHGROW1SJ2EAUR7WOWGNVIJH4G,goldfish,,Please label the pictures below.,NA,NA,,NA,Thanks!,warmup/swordfish.jpg,fish,graduated_college,AD14EQ9O9JKRI,English,,NA,fish,NA,1,1565294642614,1,NA,This is a ,1.1,These are both,NA,fish,warmup1
265,swordfish,Thu Aug 08 2019 15:04:02 GMT-0500 (Central Daylight Time),NA,7,warmup/goldfish.png,swordfish,This is a ,No,1,3DZKABX2ZITX9NOG2TPGYBNW9CYCV1,fish,Linda,352YTHGROW1SJ2EAUR7WOWGNVIJH4G,goldfish,,Please label the pictures below.,NA,NA,,NA,Thanks!,warmup/swordfish.jpg,fish,graduated_college,AD14EQ9O9JKRI,English,,NA,fish,NA,1,1565294642614,2,NA,This is a ,1.1,These are both,NA,goldfish,warmup1
265,dandelion,Thu Aug 08 2019 15:04:02 GMT-0500 (Central Daylight Time),NA,7,warmup/peony.png,daisy,This is a ,No,1,3DZKABX2ZITX9NOG2TPGYBNW9CYCV1,flowers,Linda,352YTHGROW1SJ2EAUR7WOWGNVIJH4G,peony,,Please label the pictures below.,NA,NA,,NA,Thanks!,warmup/daisy.png,flower,graduated_college,AD14EQ9O9JKRI,English,,NA,flowers,NA,2,1565294642614,1,NA,This is a ,1.1,These are both,NA,rose,warmup1
265,daisy,Thu Aug 08 2019 15:04:02 GMT-0500 (Central Daylight Time),NA,7,warmup/peony.png,daisy,This is a ,No,1,3DZKABX2ZITX9NOG2TPGYBNW9CYCV1,flowers,Linda,352YTHGROW1SJ2EAUR7WOWGNVIJH4G,peony,,Please label the pictures below.,NA,NA,,NA,Thanks!,warmup/daisy.png,flowers,graduated_college,AD14EQ9O9JKRI,English,,NA,flowers,NA,2,1565294642614,2,NA,This is a ,1.1,These are both,NA,peony,warmup1
265,pug,Thu Aug 08 2019 15:04:02 GMT-0500 (Central Daylight Time),NA,7,warmup/great-dane.jpg,pug,This is a ,No,1,3DZKABX2ZITX9NOG2TPGYBNW9CYCV1,dogs,Linda,352YTHGROW1SJ2EAUR7WOWGNVIJH4G,great dane,,Please label the pictures below.,NA,NA,,NA,Thanks!,warmup/pug.jpg,dog,graduated_college,AD14EQ9O9JKRI,English,,NA,dogs,NA,3,1565294642614,1,NA,This is a ,1.1,These are both,NA,greyhound,warmup1
265,pug,Thu Aug 08 2019 15:04:02 GMT-0500 (Central Daylight Time),NA,7,warmup/great-dane.jpg,pug,This is a ,No,1,3DZKABX2ZITX9NOG2TPGYBNW9CYCV1,dogs,Linda,352YTHGROW1SJ2EAUR7WOWGNVIJH4G,great dane,,Please label the pictures below.,NA,NA,,NA,Thanks!,warmup/pug.jpg,dogs,graduated_college,AD14EQ9O9JKRI,English,,NA,dogs,NA,3,1565294642614,2,NA,This is a ,1.1,These are both,NA,great dane,warmup1
265,NA,Thu Aug 08 2019 15:04:02 GMT-0500 (Central Daylight Time),images/dog-parade2.png,7,NA,NA,That's a big ,No,1,3DZKABX2ZITX9NOG2TPGYBNW9CYCV1,dogs,Linda,352YTHGROW1SJ2EAUR7WOWGNVIJH4G,NA,,This one is also in the parade.,prenominal,You say to your friend:,,great dane,Thanks!,NA,NA,graduated_college,AD14EQ9O9JKRI,English,,,NA,You see a parade of animals.,1,1565294642614,NA,images/great-dane.png,NA,1.1,,big,NA,main1
265,NA,Thu Aug 08 2019 15:04:02 GMT-0500 (Central Daylight Time),images/flower-parade.png,7,NA,NA,That's a big ,No,1,3DZKABX2ZITX9NOG2TPGYBNW9CYCV1,flowers,Linda,352YTHGROW1SJ2EAUR7WOWGNVIJH4G,NA,,This one is also in the collection.,prenominal,You say to your friend:,,peony,Thanks!,NA,NA,graduated_college,AD14EQ9O9JKRI,English,,,NA,You see a collection of plants.,2,1565294642614,NA,images/peony.png,NA,1.1,,big,NA,main1
265,NA,Thu Aug 08 2019 15:04:02 GMT-0500 (Central Daylight Time),images/fish-parade.png,7,NA,NA,That's a small ,No,1,3DZKABX2ZITX9NOG2TPGYBNW9CYCV1,fish,Linda,352YTHGROW1SJ2EAUR7WOWGNVIJH4G,NA,,This one is also in the parade.,prenominal,You say to your friend:,,goldfish,Thanks!,NA,NA,graduated_college,AD14EQ9O9JKRI,English,,,NA,You see a parade of animals.,3,1565294642614,NA,images/goldfish.png,NA,1.1,,small,NA,main1
265,chihuahua,Thu Aug 08 2019 15:04:02 GMT-0500 (Central Daylight Time),NA,7,warmup/doberman.png,chihuahua,This is a ,No,1,3DZKABX2ZITX9NOG2TPGYBNW9CYCV1,dogs,Linda,352YTHGROW1SJ2EAUR7WOWGNVIJH4G,doberman,,Please label the pictures below.,NA,NA,,NA,Thanks!,warmup/chihuahua.jpg,dogs,graduated_college,AD14EQ9O9JKRI,English,,NA,dogs,NA,1,1565294642614,1,NA,This is a ,1.1,These are both,NA,boxer,warmup2
265,chihuahua,Thu Aug 08 2019 15:04:02 GMT-0500 (Central Daylight Time),NA,7,warmup/doberman.png,chihuahua,This is a ,No,1,3DZKABX2ZITX9NOG2TPGYBNW9CYCV1,dogs,Linda,352YTHGROW1SJ2EAUR7WOWGNVIJH4G,doberman,,Please label the pictures below.,NA,NA,,NA,Thanks!,warmup/chihuahua.jpg,dogs,graduated_college,AD14EQ9O9JKRI,English,,NA,dogs,NA,1,1565294642614,2,NA,This is a ,1.1,These are both,NA,doberman,warmup2
265,tuna,Thu Aug 08 2019 15:04:02 GMT-0500 (Central Daylight Time),NA,7,warmup/clownfish.jpg,tuna,This is a ,No,1,3DZKABX2ZITX9NOG2TPGYBNW9CYCV1,fish,Linda,352YTHGROW1SJ2EAUR7WOWGNVIJH4G,clownfish,,Please label the pictures below.,NA,NA,,NA,Thanks!,warmup/tuna.jpg,fish,graduated_college,AD14EQ9O9JKRI,English,,NA,fish,NA,2,1565294642614,1,NA,This is a ,1.1,These are both,NA,goldfish,warmup2
265,tuna,Thu Aug 08 2019 15:04:02 GMT-0500 (Central Daylight Time),NA,7,warmup/clownfish.jpg,tuna,This is a ,No,1,3DZKABX2ZITX9NOG2TPGYBNW9CYCV1,fish,Linda,352YTHGROW1SJ2EAUR7WOWGNVIJH4G,clownfish,,Please label the pictures below.,NA,NA,,NA,Thanks!,warmup/tuna.jpg,fish,graduated_college,AD14EQ9O9JKRI,English,,NA,fish,NA,2,1565294642614,2,NA,This is a ,1.1,These are both,NA,clownfish,warmup2
265,pine tree,Thu Aug 08 2019 15:04:02 GMT-0500 (Central Daylight Time),NA,7,warmup/bonsai.jpg,redwood|sequoia,This is a ,No,1,3DZKABX2ZITX9NOG2TPGYBNW9CYCV1,trees,Linda,352YTHGROW1SJ2EAUR7WOWGNVIJH4G,bonsai,,Please label the pictures below.,NA,NA,,NA,Thanks!,warmup/sequoia.jpg,trees,graduated_college,AD14EQ9O9JKRI,English,,NA,trees,NA,3,1565294642614,1,NA,This is a ,1.1,These are both,NA,tree,warmup2
265,redwood,Thu Aug 08 2019 15:04:02 GMT-0500 (Central Daylight Time),NA,7,warmup/bonsai.jpg,redwood|sequoia,This is a ,No,1,3DZKABX2ZITX9NOG2TPGYBNW9CYCV1,trees,Linda,352YTHGROW1SJ2EAUR7WOWGNVIJH4G,bonsai,,Please label the pictures below.,NA,NA,,NA,Thanks!,warmup/sequoia.jpg,trees,graduated_college,AD14EQ9O9JKRI,English,,NA,trees,NA,3,1565294642614,2,NA,This is a ,1.1,These are both,NA,bonsai,warmup2
265,NA,Thu Aug 08 2019 15:04:02 GMT-0500 (Central Daylight Time),images/fish-parade2.png,7,NA,NA,That's a big ,No,1,3DZKABX2ZITX9NOG2TPGYBNW9CYCV1,fish,Linda,352YTHGROW1SJ2EAUR7WOWGNVIJH4G,NA,,This one is also in the parade.,prenominal,You say to your friend:,,fish,Thanks!,NA,NA,graduated_college,AD14EQ9O9JKRI,English,,,NA,You see a parade of animals.,1,1565294642614,NA,images/tuna.png,NA,1.1,,big,NA,main2
265,NA,Thu Aug 08 2019 15:04:02 GMT-0500 (Central Daylight Time),images/dog-parade.png,7,NA,NA,That's a small ,No,1,3DZKABX2ZITX9NOG2TPGYBNW9CYCV1,dogs,Linda,352YTHGROW1SJ2EAUR7WOWGNVIJH4G,NA,,This one is also in the parade.,prenominal,You say to your friend:,,dog,Thanks!,NA,NA,graduated_college,AD14EQ9O9JKRI,English,,,NA,You see a parade of animals.,2,1565294642614,NA,images/chihuahua.png,NA,1.1,,small,NA,main2
265,NA,Thu Aug 08 2019 15:04:02 GMT-0500 (Central Daylight Time),images/tree-parade.png,7,NA,NA,That's a big ,No,1,3DZKABX2ZITX9NOG2TPGYBNW9CYCV1,trees,Linda,352YTHGROW1SJ2EAUR7WOWGNVIJH4G,NA,,This one is also in the landscape.,prenominal,You say to your friend:,,tree,Thanks!,NA,NA,graduated_college,AD14EQ9O9JKRI,English,,,NA,You see the following items in a landscape.,3,1565294642614,NA,images/sequoia.png,NA,1.1,,big,NA,main2
264,tuna fish,Thu Aug 08 2019 15:44:15 GMT-0400 (Eastern Daylight Time),NA,7,warmup/clownfish.jpg,tuna,This is a ,no,1,3DZKABX2ZITX9NOG2TPGYBNW9CYCV1,fish,margaret ,3AQF3RZ5596MKTRIIPCBI9OOBUCF61,clownfish,yes,Please label the pictures below.,NA,NA,30,NA,interesting,warmup/tuna.jpg,fish,graduated_high_school,A17K1CHOI773VZ,"English,Croatian",male,NA,fish,NA,1,1565293455536,1,NA,This is a ,1.50,These are both,NA,clown fish,warmup1
264,tuna,Thu Aug 08 2019 15:44:15 GMT-0400 (Eastern Daylight Time),NA,7,warmup/clownfish.jpg,tuna,This is a ,no,1,3DZKABX2ZITX9NOG2TPGYBNW9CYCV1,fish,margaret ,3AQF3RZ5596MKTRIIPCBI9OOBUCF61,clownfish,yes,Please label the pictures below.,NA,NA,30,NA,interesting,warmup/tuna.jpg,fish,graduated_high_school,A17K1CHOI773VZ,"English,Croatian",male,NA,fish,NA,1,1565293455536,2,NA,This is a ,1.50,These are both,NA,clownfish,warmup1
264,pug,Thu Aug 08 2019 15:44:15 GMT-0400 (Eastern Daylight Time),NA,7,warmup/great-dane.jpg,pug,This is a ,no,1,3DZKABX2ZITX9NOG2TPGYBNW9CYCV1,dogs,margaret ,3AQF3RZ5596MKTRIIPCBI9OOBUCF61,great dane,yes,Please label the pictures below.,NA,NA,30,NA,interesting,warmup/pug.jpg,dogs,graduated_high_school,A17K1CHOI773VZ,"English,Croatian",male,NA,dogs,NA,2,1565293455536,1,NA,This is a ,1.50,These are both,NA,great dane,warmup1
264,swan,Thu Aug 08 2019 15:44:15 GMT-0400 (Eastern Daylight Time),NA,7,warmup/canary.jpg,swan,This is a ,no,1,3DZKABX2ZITX9NOG2TPGYBNW9CYCV1,birds,margaret ,3AQF3RZ5596MKTRIIPCBI9OOBUCF61,canary,yes,Please label the pictures below.,NA,NA,30,NA,interesting,warmup/swan.jpg,birds,graduated_high_school,A17K1CHOI773VZ,"English,Croatian",male,NA,birds,NA,3,1565293455536,1,NA,This is a ,1.50,These are both,NA,Canarie,warmup1
264,swan,Thu Aug 08 2019 15:44:15 GMT-0400 (Eastern Daylight Time),NA,7,warmup/canary.jpg,swan,This is a ,no,1,3DZKABX2ZITX9NOG2TPGYBNW9CYCV1,birds,margaret ,3AQF3RZ5596MKTRIIPCBI9OOBUCF61,canary,yes,Please label the pictures below.,NA,NA,30,NA,interesting,warmup/swan.jpg,birds,graduated_high_school,A17K1CHOI773VZ,"English,Croatian",male,NA,birds,NA,3,1565293455536,2,NA,This is a ,1.50,These are both,NA,Canarie,warmup1
264,swan,Thu Aug 08 2019 15:44:15 GMT-0400 (Eastern Daylight Time),NA,7,warmup/canary.jpg,swan,This is a ,no,1,3DZKABX2ZITX9NOG2TPGYBNW9CYCV1,birds,margaret ,3AQF3RZ5596MKTRIIPCBI9OOBUCF61,canary,yes,Please label the pictures below.,NA,NA,30,NA,interesting,warmup/swan.jpg,birds,graduated_high_school,A17K1CHOI773VZ,"English,Croatian",male,NA,birds,NA,3,1565293455536,3,NA,This is a ,1.50,These are both,NA,Canary,warmup1
264,NA,Thu Aug 08 2019 15:44:15 GMT-0400 (Eastern Daylight Time),images/fish-parade2.png,7,NA,NA,That ,no,1,3DZKABX2ZITX9NOG2TPGYBNW9CYCV1,fish,margaret ,3AQF3RZ5596MKTRIIPCBI9OOBUCF61,NA,yes,This one is also in the parade.,predicative,You say to your friend:,30,fish,interesting,NA,NA,graduated_high_school,A17K1CHOI773VZ,"English,Croatian",male,,NA,You see a parade of animals.,1,1565293455536,NA,images/clownfish.png,NA,1.50, is small.,small,NA,main1
264,NA,Thu Aug 08 2019 15:44:15 GMT-0400 (Eastern Daylight Time),images/bird-parade3.png,7,NA,NA,That ,no,1,3DZKABX2ZITX9NOG2TPGYBNW9CYCV1,birds,margaret ,3AQF3RZ5596MKTRIIPCBI9OOBUCF61,NA,yes,This one is also in the parade.,predicative,You say to your friend:,30,bird,interesting,NA,NA,graduated_high_school,A17K1CHOI773VZ,"English,Croatian",male,,NA,You see a parade of animals.,2,1565293455536,NA,images/canary.png,NA,1.50, is small.,small,NA,main1
264,NA,Thu Aug 08 2019 15:44:15 GMT-0400 (Eastern Daylight Time),images/dog-parade2.png,7,NA,NA,That ,no,1,3DZKABX2ZITX9NOG2TPGYBNW9CYCV1,dogs,margaret ,3AQF3RZ5596MKTRIIPCBI9OOBUCF61,NA,yes,This one is also in the parade.,predicative,You say to your friend:,30,dog,interesting,NA,NA,graduated_high_school,A17K1CHOI773VZ,"English,Croatian",male,,NA,You see a parade of animals.,3,1565293455536,NA,images/pug.png,NA,1.50, is small.,small,NA,main1
264,dandelion,Thu Aug 08 2019 15:44:15 GMT-0400 (Eastern Daylight Time),NA,7,warmup/sunflower.png,dandelion,This is a ,no,1,3DZKABX2ZITX9NOG2TPGYBNW9CYCV1,flowers,margaret ,3AQF3RZ5596MKTRIIPCBI9OOBUCF61,sunflower,yes,Please label the pictures below.,NA,NA,30,NA,interesting,warmup/dandelion.jpg,flower,graduated_high_school,A17K1CHOI773VZ,"English,Croatian",male,NA,flowers,NA,1,1565293455536,1,NA,This is a ,1.50,These are both,NA,sunflower,warmup2
264,dandelion,Thu Aug 08 2019 15:44:15 GMT-0400 (Eastern Daylight Time),NA,7,warmup/sunflower.png,dandelion,This is a ,no,1,3DZKABX2ZITX9NOG2TPGYBNW9CYCV1,flowers,margaret ,3AQF3RZ5596MKTRIIPCBI9OOBUCF61,sunflower,yes,Please label the pictures below.,NA,NA,30,NA,interesting,warmup/dandelion.jpg,flowers,graduated_high_school,A17K1CHOI773VZ,"English,Croatian",male,NA,flowers,NA,1,1565293455536,2,NA,This is a ,1.50,These are both,NA,sunflower,warmup2
264,marlin,Thu Aug 08 2019 15:44:15 GMT-0400 (Eastern Daylight Time),NA,7,warmup/goldfish.png,swordfish,This is a ,no,1,3DZKABX2ZITX9NOG2TPGYBNW9CYCV1,fish,margaret ,3AQF3RZ5596MKTRIIPCBI9OOBUCF61,goldfish,yes,Please label the pictures below.,NA,NA,30,NA,interesting,warmup/swordfish.jpg,fish,graduated_high_school,A17K1CHOI773VZ,"English,Croatian",male,NA,fish,NA,2,1565293455536,1,NA,This is a ,1.50,These are both,NA,goldfish,warmup2
264,swordfish,Thu Aug 08 2019 15:44:15 GMT-0400 (Eastern Daylight Time),NA,7,warmup/goldfish.png,swordfish,This is a ,no,1,3DZKABX2ZITX9NOG2TPGYBNW9CYCV1,fish,margaret ,3AQF3RZ5596MKTRIIPCBI9OOBUCF61,goldfish,yes,Please label the pictures below.,NA,NA,30,NA,interesting,warmup/swordfish.jpg,fish,graduated_high_school,A17K1CHOI773VZ,"English,Croatian",male,NA,fish,NA,2,1565293455536,2,NA,This is a ,1.50,These are both,NA,goldfish,warmup2
264,goose,Thu Aug 08 2019 15:44:15 GMT-0400 (Eastern Daylight Time),NA,7,warmup/sparrow.jpg,goose,This is a ,no,1,3DZKABX2ZITX9NOG2TPGYBNW9CYCV1,birds,margaret ,3AQF3RZ5596MKTRIIPCBI9OOBUCF61,sparrow,yes,Please label the pictures below.,NA,NA,30,NA,interesting,warmup/goose.png,bird,graduated_high_school,A17K1CHOI773VZ,"English,Croatian",male,NA,birds,NA,3,1565293455536,1,NA,This is a ,1.50,These are both,NA,sparrow,warmup2
264,goose,Thu Aug 08 2019 15:44:15 GMT-0400 (Eastern Daylight Time),NA,7,warmup/sparrow.jpg,goose,This is a ,no,1,3DZKABX2ZITX9NOG2TPGYBNW9CYCV1,birds,margaret ,3AQF3RZ5596MKTRIIPCBI9OOBUCF61,sparrow,yes,Please label the pictures below.,NA,NA,30,NA,interesting,warmup/goose.png,birds,graduated_high_school,A17K1CHOI773VZ,"English,Croatian",male,NA,birds,NA,3,1565293455536,2,NA,This is a ,1.50,These are both,NA,sparrow,warmup2
264,NA,Thu Aug 08 2019 15:44:15 GMT-0400 (Eastern Daylight Time),images/bird-parade.png,7,NA,NA,That ,no,1,3DZKABX2ZITX9NOG2TPGYBNW9CYCV1,birds,margaret ,3AQF3RZ5596MKTRIIPCBI9OOBUCF61,NA,yes,This one is also in the parade.,predicative,You say to your friend:,30,bird,interesting,NA,NA,graduated_high_school,A17K1CHOI773VZ,"English,Croatian",male,,NA,You see a parade of animals.,1,1565293455536,NA,images/goose.png,NA,1.50, is big.,big,NA,main2
264,NA,Thu Aug 08 2019 15:44:15 GMT-0400 (Eastern Daylight Time),images/fish-parade.png,7,NA,NA,That ,no,1,3DZKABX2ZITX9NOG2TPGYBNW9CYCV1,fish,margaret ,3AQF3RZ5596MKTRIIPCBI9OOBUCF61,NA,yes,This one is also in the parade.,predicative,You say to your friend:,30,fish,interesting,NA,NA,graduated_high_school,A17K1CHOI773VZ,"English,Croatian",male,,NA,You see a parade of animals.,2,1565293455536,NA,images/swordfish.png,NA,1.50, is big.,big,NA,main2
264,NA,Thu Aug 08 2019 15:44:15 GMT-0400 (Eastern Daylight Time),images/flower-parade2.png,7,NA,NA,That ,no,1,3DZKABX2ZITX9NOG2TPGYBNW9CYCV1,flowers,margaret ,3AQF3RZ5596MKTRIIPCBI9OOBUCF61,NA,yes,This one is also in the collection.,predicative,You say to your friend:,30,flower,interesting,NA,NA,graduated_high_school,A17K1CHOI773VZ,"English,Croatian",male,,NA,You see a collection of plants.,3,1565293455536,NA,images/sunflower.png,NA,1.50, is big.,big,NA,main2
263,dandelion,Thu Aug 08 2019 14:58:04 GMT-0500 (Central Daylight Time),NA,7,warmup/peony.png,daisy,This is a ,No,1,3DZKABX2ZITX9NOG2TPGYBNW9CYCV1,flowers,barbara,3VFJCI1K40NLKCLXLXLRBPFW8WQRGA,peony,yes,Please label the pictures below.,NA,NA,19,NA,,warmup/daisy.png,flowers,some_college,A1SX8IVV82M0LW,English,male,NA,flowers,NA,1,1565294284325,1,NA,This is a ,1.50,These are both,NA,rose,warmup1
263,daisy,Thu Aug 08 2019 14:58:04 GMT-0500 (Central Daylight Time),NA,7,warmup/peony.png,daisy,This is a ,No,1,3DZKABX2ZITX9NOG2TPGYBNW9CYCV1,flowers,barbara,3VFJCI1K40NLKCLXLXLRBPFW8WQRGA,peony,yes,Please label the pictures below.,NA,NA,19,NA,,warmup/daisy.png,flowers,some_college,A1SX8IVV82M0LW,English,male,NA,flowers,NA,1,1565294284325,2,NA,This is a ,1.50,These are both,NA,peony,warmup1
263,swan,Thu Aug 08 2019 14:58:04 GMT-0500 (Central Daylight Time),NA,7,warmup/sparrow.jpg,goose,This is a ,No,1,3DZKABX2ZITX9NOG2TPGYBNW9CYCV1,birds,barbara,3VFJCI1K40NLKCLXLXLRBPFW8WQRGA,sparrow,yes,Please label the pictures below.,NA,NA,19,NA,,warmup/goose.png,birds,some_college,A1SX8IVV82M0LW,English,male,NA,birds,NA,2,1565294284325,1,NA,This is a ,1.50,These are both,NA,sparrow,warmup1
263,goose,Thu Aug 08 2019 14:58:04 GMT-0500 (Central Daylight Time),NA,7,warmup/sparrow.jpg,goose,This is a ,No,1,3DZKABX2ZITX9NOG2TPGYBNW9CYCV1,birds,barbara,3VFJCI1K40NLKCLXLXLRBPFW8WQRGA,sparrow,yes,Please label the pictures below.,NA,NA,19,NA,,warmup/goose.png,birds,some_college,A1SX8IVV82M0LW,English,male,NA,birds,NA,2,1565294284325,2,NA,This is a ,1.50,These are both,NA,sparrow,warmup1
263,dandelion,Thu Aug 08 2019 14:58:04 GMT-0500 (Central Daylight Time),NA,7,warmup/sunflower.png,dandelion,This is a ,No,1,3DZKABX2ZITX9NOG2TPGYBNW9CYCV1,flowers,barbara,3VFJCI1K40NLKCLXLXLRBPFW8WQRGA,sunflower,yes,Please label the pictures below.,NA,NA,19,NA,,warmup/dandelion.jpg,flowers,some_college,A1SX8IVV82M0LW,English,male,NA,flowers,NA,3,1565294284325,1,NA,This is a ,1.50,These are both,NA,sunflower,warmup1
263,NA,Thu Aug 08 2019 14:58:04 GMT-0500 (Central Daylight Time),images/flower-parade.png,7,NA,NA,That's a big ,No,1,3DZKABX2ZITX9NOG2TPGYBNW9CYCV1,flowers,barbara,3VFJCI1K40NLKCLXLXLRBPFW8WQRGA,NA,yes,This one is also in the collection.,prenominal,You say to your friend:,19,peony,,NA,NA,some_college,A1SX8IVV82M0LW,English,male,,NA,You see a collection of plants.,1,1565294284325,NA,images/peony.png,NA,1.50,,big,NA,main1
263,NA,Thu Aug 08 2019 14:58:04 GMT-0500 (Central Daylight Time),images/bird-parade.png,7,NA,NA,That's a big ,No,1,3DZKABX2ZITX9NOG2TPGYBNW9CYCV1,birds,barbara,3VFJCI1K40NLKCLXLXLRBPFW8WQRGA,NA,yes,This one is also in the parade.,prenominal,You say to your friend:,19,goose,,NA,NA,some_college,A1SX8IVV82M0LW,English,male,,NA,You see a parade of animals.,2,1565294284325,NA,images/goose.png,NA,1.50,,big,NA,main1
263,NA,Thu Aug 08 2019 14:58:04 GMT-0500 (Central Daylight Time),images/flower-parade2.png,7,NA,NA,That's a small ,No,1,3DZKABX2ZITX9NOG2TPGYBNW9CYCV1,flowers,barbara,3VFJCI1K40NLKCLXLXLRBPFW8WQRGA,NA,yes,This one is also in the collection.,prenominal,You say to your friend:,19,flower,,NA,NA,some_college,A1SX8IVV82M0LW,English,male,,NA,You see a collection of plants.,3,1565294284325,NA,images/dandelion.png,NA,1.50,,small,NA,main1
263,dachschund,Thu Aug 08 2019 14:58:04 GMT-0500 (Central Daylight Time),NA,7,warmup/doberman.png,chihuahua,This is a ,No,1,3DZKABX2ZITX9NOG2TPGYBNW9CYCV1,dogs,barbara,3VFJCI1K40NLKCLXLXLRBPFW8WQRGA,doberman,yes,Please label the pictures below.,NA,NA,19,NA,,warmup/chihuahua.jpg,dogs,some_college,A1SX8IVV82M0LW,English,male,NA,dogs,NA,1,1565294284325,1,NA,This is a ,1.50,These are both,NA,jack russell,warmup2
263,chihuahua,Thu Aug 08 2019 14:58:04 GMT-0500 (Central Daylight Time),NA,7,warmup/doberman.png,chihuahua,This is a ,No,1,3DZKABX2ZITX9NOG2TPGYBNW9CYCV1,dogs,barbara,3VFJCI1K40NLKCLXLXLRBPFW8WQRGA,doberman,yes,Please label the pictures below.,NA,NA,19,NA,,warmup/chihuahua.jpg,dogs,some_college,A1SX8IVV82M0LW,English,male,NA,dogs,NA,1,1565294284325,2,NA,This is a ,1.50,These are both,NA,doberman,warmup2
263,poplar,Thu Aug 08 2019 14:58:04 GMT-0500 (Central Daylight Time),NA,7,warmup/bonsai.jpg,redwood|sequoia,This is a ,No,1,3DZKABX2ZITX9NOG2TPGYBNW9CYCV1,trees,barbara,3VFJCI1K40NLKCLXLXLRBPFW8WQRGA,bonsai,yes,Please label the pictures below.,NA,NA,19,NA,,warmup/sequoia.jpg,trees,some_college,A1SX8IVV82M0LW,English,male,NA,trees,NA,2,1565294284325,1,NA,This is a ,1.50,These are both,NA,sapling,warmup2
263,redwood,Thu Aug 08 2019 14:58:04 GMT-0500 (Central Daylight Time),NA,7,warmup/bonsai.jpg,redwood|sequoia,This is a ,No,1,3DZKABX2ZITX9NOG2TPGYBNW9CYCV1,trees,barbara,3VFJCI1K40NLKCLXLXLRBPFW8WQRGA,bonsai,yes,Please label the pictures below.,NA,NA,19,NA,,warmup/sequoia.jpg,trees,some_college,A1SX8IVV82M0LW,English,male,NA,trees,NA,2,1565294284325,2,NA,This is a ,1.50,These are both,NA,bonsai,warmup2
263,hummingbird,Thu Aug 08 2019 14:58:04 GMT-0500 (Central Daylight Time),NA,7,warmup/eagle.jpg,hummingbird,This is a ,No,1,3DZKABX2ZITX9NOG2TPGYBNW9CYCV1,birds,barbara,3VFJCI1K40NLKCLXLXLRBPFW8WQRGA,eagle,yes,Please label the pictures below.,NA,NA,19,NA,,warmup/colibri.jpg,birds,some_college,A1SX8IVV82M0LW,English,male,NA,birds,NA,3,1565294284325,1,NA,This is an ,1.50,These are both,NA,eagle,warmup2
263,NA,Thu Aug 08 2019 14:58:04 GMT-0500 (Central Daylight Time),images/bird-parade2.png,7,NA,NA,That's a small ,No,1,3DZKABX2ZITX9NOG2TPGYBNW9CYCV1,birds,barbara,3VFJCI1K40NLKCLXLXLRBPFW8WQRGA,NA,yes,This one is also in the parade.,prenominal,You say to your friend:,19,bird,,NA,NA,some_college,A1SX8IVV82M0LW,English,male,,NA,You see a parade of animals.,1,1565294284325,NA,images/hummingbird.png,NA,1.50,,small,NA,main2
263,NA,Thu Aug 08 2019 14:58:04 GMT-0500 (Central Daylight Time),images/dog-parade.png,7,NA,NA,That's a big ,No,1,3DZKABX2ZITX9NOG2TPGYBNW9CYCV1,dogs,barbara,3VFJCI1K40NLKCLXLXLRBPFW8WQRGA,NA,yes,This one is also in the parade.,prenominal,You say to your friend:,19,doberman,,NA,NA,some_college,A1SX8IVV82M0LW,English,male,,NA,You see a parade of animals.,2,1565294284325,NA,images/doberman.png,NA,1.50,,big,NA,main2
263,NA,Thu Aug 08 2019 14:58:04 GMT-0500 (Central Daylight Time),images/tree-parade.png,7,NA,NA,That's a big ,No,1,3DZKABX2ZITX9NOG2TPGYBNW9CYCV1,trees,barbara,3VFJCI1K40NLKCLXLXLRBPFW8WQRGA,NA,yes,This one is also in the landscape.,prenominal,You say to your friend:,19,tree,,NA,NA,some_college,A1SX8IVV82M0LW,English,male,,NA,You see the following items in a landscape.,3,1565294284325,NA,images/sequoia.png,NA,1.50,,big,NA,main2
262,hummingbird,Thu Aug 08 2019 12:52:22 GMT-0700 (Pacific Daylight Time),NA,7,warmup/eagle.jpg,hummingbird,This is a ,No issues.,1,3DZKABX2ZITX9NOG2TPGYBNW9CYCV1,birds,sarah,3H7XDTSHKDFQS82JKRVXYOND0B5WGI,eagle,,Please label the pictures below.,NA,NA,31,NA,,warmup/colibri.jpg,birds,graduated_high_school,AAIQLE701DI9U,English,male,NA,birds,NA,1,1565293942866,1,NA,This is an ,1.20,These are both,NA,eagle,warmup1
262,swordfish,Thu Aug 08 2019 12:52:22 GMT-0700 (Pacific Daylight Time),NA,7,warmup/goldfish.png,swordfish,This is a ,No issues.,1,3DZKABX2ZITX9NOG2TPGYBNW9CYCV1,fish,sarah,3H7XDTSHKDFQS82JKRVXYOND0B5WGI,goldfish,,Please label the pictures below.,NA,NA,31,NA,,warmup/swordfish.jpg,fish,graduated_high_school,AAIQLE701DI9U,English,male,NA,fish,NA,2,1565293942866,1,NA,This is a ,1.20,These are both,NA,goldfish,warmup1
262,dandylion,Thu Aug 08 2019 12:52:22 GMT-0700 (Pacific Daylight Time),NA,7,warmup/peony.png,daisy,This is a ,No issues.,1,3DZKABX2ZITX9NOG2TPGYBNW9CYCV1,flowers,sarah,3H7XDTSHKDFQS82JKRVXYOND0B5WGI,peony,,Please label the pictures below.,NA,NA,31,NA,,warmup/daisy.png,flowers,graduated_high_school,AAIQLE701DI9U,English,male,NA,flowers,NA,3,1565293942866,1,NA,This is a ,1.20,These are both,NA,rose,warmup1
262,dandylion,Thu Aug 08 2019 12:52:22 GMT-0700 (Pacific Daylight Time),NA,7,warmup/peony.png,daisy,This is a ,No issues.,1,3DZKABX2ZITX9NOG2TPGYBNW9CYCV1,flowers,sarah,3H7XDTSHKDFQS82JKRVXYOND0B5WGI,peony,,Please label the pictures below.,NA,NA,31,NA,,warmup/daisy.png,flowers,graduated_high_school,AAIQLE701DI9U,English,male,NA,flowers,NA,3,1565293942866,2,NA,This is a ,1.20,These are both,NA,rose,warmup1
262,dandy lion,Thu Aug 08 2019 12:52:22 GMT-0700 (Pacific Daylight Time),NA,7,warmup/peony.png,daisy,This is a ,No issues.,1,3DZKABX2ZITX9NOG2TPGYBNW9CYCV1,flowers,sarah,3H7XDTSHKDFQS82JKRVXYOND0B5WGI,peony,,Please label the pictures below.,NA,NA,31,NA,,warmup/daisy.png,flowers,graduated_high_school,AAIQLE701DI9U,English,male,NA,flowers,NA,3,1565293942866,3,NA,This is a ,1.20,These are both,NA,rose,warmup1
262,dandy lion,Thu Aug 08 2019 12:52:22 GMT-0700 (Pacific Daylight Time),NA,7,warmup/peony.png,daisy,This is a ,No issues.,1,3DZKABX2ZITX9NOG2TPGYBNW9CYCV1,flowers,sarah,3H7XDTSHKDFQS82JKRVXYOND0B5WGI,peony,,Please label the pictures below.,NA,NA,31,NA,,warmup/daisy.png,flowers,graduated_high_school,AAIQLE701DI9U,English,male,NA,flowers,NA,3,1565293942866,4,NA,This is a ,1.20,These are both,NA,rose,warmup1
262,flower,Thu Aug 08 2019 12:52:22 GMT-0700 (Pacific Daylight Time),NA,7,warmup/peony.png,daisy,This is a ,No issues.,1,3DZKABX2ZITX9NOG2TPGYBNW9CYCV1,flowers,sarah,3H7XDTSHKDFQS82JKRVXYOND0B5WGI,peony,,Please label the pictures below.,NA,NA,31,NA,,warmup/daisy.png,flowers,graduated_high_school,AAIQLE701DI9U,English,male,NA,flowers,NA,3,1565293942866,5,NA,This is a ,1.20,These are both,NA,rose,warmup1
262,daisy,Thu Aug 08 2019 12:52:22 GMT-0700 (Pacific Daylight Time),NA,7,warmup/peony.png,daisy,This is a ,No issues.,1,3DZKABX2ZITX9NOG2TPGYBNW9CYCV1,flowers,sarah,3H7XDTSHKDFQS82JKRVXYOND0B5WGI,peony,,Please label the pictures below.,NA,NA,31,NA,,warmup/daisy.png,flowers,graduated_high_school,AAIQLE701DI9U,English,male,NA,flowers,NA,3,1565293942866,6,NA,This is a ,1.20,These are both,NA,rose,warmup1
262,daisy,Thu Aug 08 2019 12:52:22 GMT-0700 (Pacific Daylight Time),NA,7,warmup/peony.png,daisy,This is a ,No issues.,1,3DZKABX2ZITX9NOG2TPGYBNW9CYCV1,flowers,sarah,3H7XDTSHKDFQS82JKRVXYOND0B5WGI,peony,,Please label the pictures below.,NA,NA,31,NA,,warmup/daisy.png,flowers,graduated_high_school,AAIQLE701DI9U,English,male,NA,flowers,NA,3,1565293942866,7,NA,This is a ,1.20,These are both,NA,rose,warmup1
262,daisy,Thu Aug 08 2019 12:52:22 GMT-0700 (Pacific Daylight Time),NA,7,warmup/peony.png,daisy,This is a ,No issues.,1,3DZKABX2ZITX9NOG2TPGYBNW9CYCV1,flowers,sarah,3H7XDTSHKDFQS82JKRVXYOND0B5WGI,peony,,Please label the pictures below.,NA,NA,31,NA,,warmup/daisy.png,flowers,graduated_high_school,AAIQLE701DI9U,English,male,NA,flowers,NA,3,1565293942866,8,NA,This is a ,1.20,These are both,NA,rose,warmup1
262,daisy,Thu Aug 08 2019 12:52:22 GMT-0700 (Pacific Daylight Time),NA,7,warmup/peony.png,daisy,This is a ,No issues.,1,3DZKABX2ZITX9NOG2TPGYBNW9CYCV1,flowers,sarah,3H7XDTSHKDFQS82JKRVXYOND0B5WGI,peony,,Please label the pictures below.,NA,NA,31,NA,,warmup/daisy.png,flowers,graduated_high_school,AAIQLE701DI9U,English,male,NA,flowers,NA,3,1565293942866,9,NA,This is a ,1.20,These are both,NA,rose,warmup1
262,daisy,Thu Aug 08 2019 12:52:22 GMT-0700 (Pacific Daylight Time),NA,7,warmup/peony.png,daisy,This is a ,No issues.,1,3DZKABX2ZITX9NOG2TPGYBNW9CYCV1,flowers,sarah,3H7XDTSHKDFQS82JKRVXYOND0B5WGI,peony,,Please label the pictures below.,NA,NA,31,NA,,warmup/daisy.png,flowers,graduated_high_school,AAIQLE701DI9U,English,male,NA,flowers,NA,3,1565293942866,10,NA,This is a ,1.20,These are both,NA,peony,warmup1
262,NA,Thu Aug 08 2019 12:52:22 GMT-0700 (Pacific Daylight Time),images/fish-parade.png,7,NA,NA,That ,No issues.,1,3DZKABX2ZITX9NOG2TPGYBNW9CYCV1,fish,sarah,3H7XDTSHKDFQS82JKRVXYOND0B5WGI,NA,,This one is also in the parade.,predicative,You say to your friend:,31,swordfish,,NA,NA,graduated_high_school,AAIQLE701DI9U,English,male,,NA,You see a parade of animals.,1,1565293942866,NA,images/swordfish.png,NA,1.20, is big.,big,NA,main1
262,NA,Thu Aug 08 2019 12:52:22 GMT-0700 (Pacific Daylight Time),images/bird-parade2.png,7,NA,NA,That ,No issues.,1,3DZKABX2ZITX9NOG2TPGYBNW9CYCV1,birds,sarah,3H7XDTSHKDFQS82JKRVXYOND0B5WGI,NA,,This one is also in the parade.,predicative,You say to your friend:,31,eagle,,NA,NA,graduated_high_school,AAIQLE701DI9U,English,male,,NA,You see a parade of animals.,2,1565293942866,NA,images/eagle.png,NA,1.20, is big.,big,NA,main1
262,NA,Thu Aug 08 2019 12:52:22 GMT-0700 (Pacific Daylight Time),images/flower-parade.png,7,NA,NA,That ,No issues.,1,3DZKABX2ZITX9NOG2TPGYBNW9CYCV1,flowers,sarah,3H7XDTSHKDFQS82JKRVXYOND0B5WGI,NA,,This one is also in the collection.,predicative,You say to your friend:,31,daisy,,NA,NA,graduated_high_school,AAIQLE701DI9U,English,male,,NA,You see a collection of plants.,3,1565293942866,NA,images/daisy.png,NA,1.20, is small.,small,NA,main1
262,dandy lion,Thu Aug 08 2019 12:52:22 GMT-0700 (Pacific Daylight Time),NA,7,warmup/sunflower.png,dandelion,This is a ,No issues.,1,3DZKABX2ZITX9NOG2TPGYBNW9CYCV1,flowers,sarah,3H7XDTSHKDFQS82JKRVXYOND0B5WGI,sunflower,,Please label the pictures below.,NA,NA,31,NA,,warmup/dandelion.jpg,flowers,graduated_high_school,AAIQLE701DI9U,English,male,NA,flowers,NA,1,1565293942866,1,NA,This is a ,1.20,These are both,NA,sunflower,warmup2
262,dandelion,Thu Aug 08 2019 12:52:22 GMT-0700 (Pacific Daylight Time),NA,7,warmup/sunflower.png,dandelion,This is a ,No issues.,1,3DZKABX2ZITX9NOG2TPGYBNW9CYCV1,flowers,sarah,3H7XDTSHKDFQS82JKRVXYOND0B5WGI,sunflower,,Please label the pictures below.,NA,NA,31,NA,,warmup/dandelion.jpg,flowers,graduated_high_school,AAIQLE701DI9U,English,male,NA,flowers,NA,1,1565293942866,2,NA,This is a ,1.20,These are both,NA,sunflower,warmup2
262,chihuahua,Thu Aug 08 2019 12:52:22 GMT-0700 (Pacific Daylight Time),NA,7,warmup/doberman.png,chihuahua,This is a ,No issues.,1,3DZKABX2ZITX9NOG2TPGYBNW9CYCV1,dogs,sarah,3H7XDTSHKDFQS82JKRVXYOND0B5WGI,doberman,,Please label the pictures below.,NA,NA,31,NA,,warmup/chihuahua.jpg,dogs,graduated_high_school,AAIQLE701DI9U,English,male,NA,dogs,NA,2,1565293942866,1,NA,This is a ,1.20,These are both,NA,doberman,warmup2
262,swan,Thu Aug 08 2019 12:52:22 GMT-0700 (Pacific Daylight Time),NA,7,warmup/canary.jpg,swan,This is a ,No issues.,1,3DZKABX2ZITX9NOG2TPGYBNW9CYCV1,birds,sarah,3H7XDTSHKDFQS82JKRVXYOND0B5WGI,canary,,Please label the pictures below.,NA,NA,31,NA,,warmup/swan.jpg,birds,graduated_high_school,AAIQLE701DI9U,English,male,NA,birds,NA,3,1565293942866,1,NA,This is a ,1.20,These are both,NA,bird,warmup2
262,swan,Thu Aug 08 2019 12:52:22 GMT-0700 (Pacific Daylight Time),NA,7,warmup/canary.jpg,swan,This is a ,No issues.,1,3DZKABX2ZITX9NOG2TPGYBNW9CYCV1,birds,sarah,3H7XDTSHKDFQS82JKRVXYOND0B5WGI,canary,,Please label the pictures below.,NA,NA,31,NA,,warmup/swan.jpg,birds,graduated_high_school,AAIQLE701DI9U,English,male,NA,birds,NA,3,1565293942866,2,NA,This is a ,1.20,These are both,NA,canary,warmup2
262,NA,Thu Aug 08 2019 12:52:22 GMT-0700 (Pacific Daylight Time),images/bird-parade3.png,7,NA,NA,That ,No issues.,1,3DZKABX2ZITX9NOG2TPGYBNW9CYCV1,birds,sarah,3H7XDTSHKDFQS82JKRVXYOND0B5WGI,NA,,This one is also in the parade.,predicative,You say to your friend:,31,swan,,NA,NA,graduated_high_school,AAIQLE701DI9U,English,male,,NA,You see a parade of animals.,1,1565293942866,NA,images/swan.png,NA,1.20, is big.,big,NA,main2
262,NA,Thu Aug 08 2019 12:52:22 GMT-0700 (Pacific Daylight Time),images/flower-parade2.png,7,NA,NA,That ,No issues.,1,3DZKABX2ZITX9NOG2TPGYBNW9CYCV1,flowers,sarah,3H7XDTSHKDFQS82JKRVXYOND0B5WGI,NA,,This one is also in the collection.,predicative,You say to your friend:,31,dandelion,,NA,NA,graduated_high_school,AAIQLE701DI9U,English,male,,NA,You see a collection of plants.,2,1565293942866,NA,images/dandelion.png,NA,1.20, is small.,small,NA,main2
262,NA,Thu Aug 08 2019 12:52:22 GMT-0700 (Pacific Daylight Time),images/dog-parade.png,7,NA,NA,That ,No issues.,1,3DZKABX2ZITX9NOG2TPGYBNW9CYCV1,dogs,sarah,3H7XDTSHKDFQS82JKRVXYOND0B5WGI,NA,,This one is also in the parade.,predicative,You say to your friend:,31,chihuahua,,NA,NA,graduated_high_school,AAIQLE701DI9U,English,male,,NA,You see a parade of animals.,3,1565293942866,NA,images/chihuahua.png,NA,1.20, is small.,small,NA,main2
261,shark,Thu Aug 08 2019 15:43:49 GMT-0400 (Eastern Daylight Time),NA,7,warmup/goldfish.png,swordfish,This is a ,,2,3DZKABX2ZITX9NOG2TPGYBNW9CYCV1,fish,elizabeth,3GGAI1SQEWMH6KS0E3TRZZ074HZCMX,goldfish,yes,Please label the pictures below.,NA,NA,31,NA,,warmup/swordfish.jpg,fish,graduated_college,A3C0NQ2IP5FTZQ,English,male,NA,fish,NA,1,1565293429752,1,NA,This is a ,1.10,These are both,NA,goldfish,warmup1
261,swordfish,Thu Aug 08 2019 15:43:49 GMT-0400 (Eastern Daylight Time),NA,7,warmup/goldfish.png,swordfish,This is a ,,2,3DZKABX2ZITX9NOG2TPGYBNW9CYCV1,fish,elizabeth,3GGAI1SQEWMH6KS0E3TRZZ074HZCMX,goldfish,yes,Please label the pictures below.,NA,NA,31,NA,,warmup/swordfish.jpg,fish,graduated_college,A3C0NQ2IP5FTZQ,English,male,NA,fish,NA,1,1565293429752,2,NA,This is a ,1.10,These are both,NA,goldfish,warmup1
261,daisy,Thu Aug 08 2019 15:43:49 GMT-0400 (Eastern Daylight Time),NA,7,warmup/sunflower.png,dandelion,This is a ,,2,3DZKABX2ZITX9NOG2TPGYBNW9CYCV1,flowers,elizabeth,3GGAI1SQEWMH6KS0E3TRZZ074HZCMX,sunflower,yes,Please label the pictures below.,NA,NA,31,NA,,warmup/dandelion.jpg,flowers,graduated_college,A3C0NQ2IP5FTZQ,English,male,NA,flowers,NA,2,1565293429752,1,NA,This is a ,1.10,These are both,NA,sunflower,warmup1
261,dandelion,Thu Aug 08 2019 15:43:49 GMT-0400 (Eastern Daylight Time),NA,7,warmup/sunflower.png,dandelion,This is a ,,2,3DZKABX2ZITX9NOG2TPGYBNW9CYCV1,flowers,elizabeth,3GGAI1SQEWMH6KS0E3TRZZ074HZCMX,sunflower,yes,Please label the pictures below.,NA,NA,31,NA,,warmup/dandelion.jpg,flowers,graduated_college,A3C0NQ2IP5FTZQ,English,male,NA,flowers,NA,2,1565293429752,2,NA,This is a ,1.10,These are both,NA,sunflower,warmup1
261,dove,Thu Aug 08 2019 15:43:49 GMT-0400 (Eastern Daylight Time),NA,7,warmup/canary.jpg,swan,This is a ,,2,3DZKABX2ZITX9NOG2TPGYBNW9CYCV1,birds,elizabeth,3GGAI1SQEWMH6KS0E3TRZZ074HZCMX,canary,yes,Please label the pictures below.,NA,NA,31,NA,,warmup/swan.jpg,bird,graduated_college,A3C0NQ2IP5FTZQ,English,male,NA,birds,NA,3,1565293429752,1,NA,This is a ,1.10,These are both,NA,pigeon,warmup1
261,swan,Thu Aug 08 2019 15:43:49 GMT-0400 (Eastern Daylight Time),NA,7,warmup/canary.jpg,swan,This is a ,,2,3DZKABX2ZITX9NOG2TPGYBNW9CYCV1,birds,elizabeth,3GGAI1SQEWMH6KS0E3TRZZ074HZCMX,canary,yes,Please label the pictures below.,NA,NA,31,NA,,warmup/swan.jpg,birds,graduated_college,A3C0NQ2IP5FTZQ,English,male,NA,birds,NA,3,1565293429752,2,NA,This is a ,1.10,These are both,NA,canary,warmup1
261,NA,Thu Aug 08 2019 15:43:49 GMT-0400 (Eastern Daylight Time),images/fish-parade.png,7,NA,NA,That ,,2,3DZKABX2ZITX9NOG2TPGYBNW9CYCV1,fish,elizabeth,3GGAI1SQEWMH6KS0E3TRZZ074HZCMX,NA,yes,This one is also in the parade.,predicative,You say to your friend:,31,swordfish,,NA,NA,graduated_college,A3C0NQ2IP5FTZQ,English,male,,NA,You see a parade of animals.,1,1565293429752,NA,images/swordfish.png,NA,1.10, is big.,big,NA,main1
261,NA,Thu Aug 08 2019 15:43:49 GMT-0400 (Eastern Daylight Time),images/flower-parade2.png,7,NA,NA,That ,,2,3DZKABX2ZITX9NOG2TPGYBNW9CYCV1,flowers,elizabeth,3GGAI1SQEWMH6KS0E3TRZZ074HZCMX,NA,yes,This one is also in the collection.,predicative,You say to your friend:,31,dandelion,,NA,NA,graduated_college,A3C0NQ2IP5FTZQ,English,male,,NA,You see a collection of plants.,2,1565293429752,NA,images/dandelion.png,NA,1.10, is small.,small,NA,main1
261,NA,Thu Aug 08 2019 15:43:49 GMT-0400 (Eastern Daylight Time),images/bird-parade3.png,7,NA,NA,That ,,2,3DZKABX2ZITX9NOG2TPGYBNW9CYCV1,birds,elizabeth,3GGAI1SQEWMH6KS0E3TRZZ074HZCMX,NA,yes,This one is also in the parade.,predicative,You say to your friend:,31,canary,,NA,NA,graduated_college,A3C0NQ2IP5FTZQ,English,male,,NA,You see a parade of animals.,3,1565293429752,NA,images/canary.png,NA,1.10, is small.,small,NA,main1
261,bass,Thu Aug 08 2019 15:43:49 GMT-0400 (Eastern Daylight Time),NA,7,warmup/clownfish.jpg,tuna,This is a ,,2,3DZKABX2ZITX9NOG2TPGYBNW9CYCV1,fish,elizabeth,3GGAI1SQEWMH6KS0E3TRZZ074HZCMX,clownfish,yes,Please label the pictures below.,NA,NA,31,NA,,warmup/tuna.jpg,fish,graduated_college,A3C0NQ2IP5FTZQ,English,male,NA,fish,NA,1,1565293429752,1,NA,This is a ,1.10,These are both,NA,fish,warmup2
261,tuna,Thu Aug 08 2019 15:43:49 GMT-0400 (Eastern Daylight Time),NA,7,warmup/clownfish.jpg,tuna,This is a ,,2,3DZKABX2ZITX9NOG2TPGYBNW9CYCV1,fish,elizabeth,3GGAI1SQEWMH6KS0E3TRZZ074HZCMX,clownfish,yes,Please label the pictures below.,NA,NA,31,NA,,warmup/tuna.jpg,fish,graduated_college,A3C0NQ2IP5FTZQ,English,male,NA,fish,NA,1,1565293429752,2,NA,This is a ,1.10,These are both,NA,clownfish,warmup2
261,hummingbird,Thu Aug 08 2019 15:43:49 GMT-0400 (Eastern Daylight Time),NA,7,warmup/eagle.jpg,hummingbird,This is a ,,2,3DZKABX2ZITX9NOG2TPGYBNW9CYCV1,birds,elizabeth,3GGAI1SQEWMH6KS0E3TRZZ074HZCMX,eagle,yes,Please label the pictures below.,NA,NA,31,NA,,warmup/colibri.jpg,birds,graduated_college,A3C0NQ2IP5FTZQ,English,male,NA,birds,NA,2,1565293429752,1,NA,This is an ,1.10,These are both,NA,eagle,warmup2
261,flower,Thu Aug 08 2019 15:43:49 GMT-0400 (Eastern Daylight Time),NA,7,warmup/peony.png,daisy,This is a ,,2,3DZKABX2ZITX9NOG2TPGYBNW9CYCV1,flowers,elizabeth,3GGAI1SQEWMH6KS0E3TRZZ074HZCMX,peony,yes,Please label the pictures below.,NA,NA,31,NA,,warmup/daisy.png,flower,graduated_college,A3C0NQ2IP5FTZQ,English,male,NA,flowers,NA,3,1565293429752,1,NA,This is a ,1.10,These are both,NA,flower,warmup2
261,daisy,Thu Aug 08 2019 15:43:49 GMT-0400 (Eastern Daylight Time),NA,7,warmup/peony.png,daisy,This is a ,,2,3DZKABX2ZITX9NOG2TPGYBNW9CYCV1,flowers,elizabeth,3GGAI1SQEWMH6KS0E3TRZZ074HZCMX,peony,yes,Please label the pictures below.,NA,NA,31,NA,,warmup/daisy.png,flowers,graduated_college,A3C0NQ2IP5FTZQ,English,male,NA,flowers,NA,3,1565293429752,2,NA,This is a ,1.10,These are both,NA,peony,warmup2
261,NA,Thu Aug 08 2019 15:43:49 GMT-0400 (Eastern Daylight Time),images/fish-parade2.png,7,NA,NA,That ,,2,3DZKABX2ZITX9NOG2TPGYBNW9CYCV1,fish,elizabeth,3GGAI1SQEWMH6KS0E3TRZZ074HZCMX,NA,yes,This one is also in the parade.,predicative,You say to your friend:,31,tuna,,NA,NA,graduated_college,A3C0NQ2IP5FTZQ,English,male,,NA,You see a parade of animals.,1,1565293429752,NA,images/tuna.png,NA,1.10, is big.,big,NA,main2
261,NA,Thu Aug 08 2019 15:43:49 GMT-0400 (Eastern Daylight Time),images/bird-parade2.png,7,NA,NA,That ,,2,3DZKABX2ZITX9NOG2TPGYBNW9CYCV1,birds,elizabeth,3GGAI1SQEWMH6KS0E3TRZZ074HZCMX,NA,yes,This one is also in the parade.,predicative,You say to your friend:,31,hummingbird,,NA,NA,graduated_college,A3C0NQ2IP5FTZQ,English,male,,NA,You see a parade of animals.,2,1565293429752,NA,images/hummingbird.png,NA,1.10, is small.,small,NA,main2
261,NA,Thu Aug 08 2019 15:43:49 GMT-0400 (Eastern Daylight Time),images/flower-parade.png,7,NA,NA,That ,,2,3DZKABX2ZITX9NOG2TPGYBNW9CYCV1,flowers,elizabeth,3GGAI1SQEWMH6KS0E3TRZZ074HZCMX,NA,yes,This one is also in the collection.,predicative,You say to your friend:,31,flower,,NA,NA,graduated_college,A3C0NQ2IP5FTZQ,English,male,,NA,You see a collection of plants.,3,1565293429752,NA,images/peony.png,NA,1.10, is big.,big,NA,main2
260,tuna,Thu Aug 08 2019 15:53:32 GMT-0400 (Eastern Daylight Time),NA,7,warmup/clownfish.jpg,tuna,This is a ,,,3DZKABX2ZITX9NOG2TPGYBNW9CYCV1,fish,sarah,3EJJQNKU9STZK8G85339WPRXNW3RH9,clownfish,yes,Please label the pictures below.,NA,NA,20,NA,,warmup/tuna.jpg,fish,graduated_high_school,AWNQ9E62XRB0O,English,male,NA,fish,NA,1,1565294012552,1,NA,This is a ,3,These are both,NA,clowfish,warmup1
260,tuna,Thu Aug 08 2019 15:53:32 GMT-0400 (Eastern Daylight Time),NA,7,warmup/clownfish.jpg,tuna,This is a ,,,3DZKABX2ZITX9NOG2TPGYBNW9CYCV1,fish,sarah,3EJJQNKU9STZK8G85339WPRXNW3RH9,clownfish,yes,Please label the pictures below.,NA,NA,20,NA,,warmup/tuna.jpg,fish,graduated_high_school,AWNQ9E62XRB0O,English,male,NA,fish,NA,1,1565294012552,2,NA,This is a ,3,These are both,NA,clownfish,warmup1
260,pug,Thu Aug 08 2019 15:53:32 GMT-0400 (Eastern Daylight Time),NA,7,warmup/great-dane.jpg,pug,This is a ,,,3DZKABX2ZITX9NOG2TPGYBNW9CYCV1,dogs,sarah,3EJJQNKU9STZK8G85339WPRXNW3RH9,great dane,yes,Please label the pictures below.,NA,NA,20,NA,,warmup/pug.jpg,dogs,graduated_high_school,AWNQ9E62XRB0O,English,male,NA,dogs,NA,2,1565294012552,1,NA,This is a ,3,These are both,NA,dane,warmup1
260,pug,Thu Aug 08 2019 15:53:32 GMT-0400 (Eastern Daylight Time),NA,7,warmup/great-dane.jpg,pug,This is a ,,,3DZKABX2ZITX9NOG2TPGYBNW9CYCV1,dogs,sarah,3EJJQNKU9STZK8G85339WPRXNW3RH9,great dane,yes,Please label the pictures below.,NA,NA,20,NA,,warmup/pug.jpg,dogs,graduated_high_school,AWNQ9E62XRB0O,English,male,NA,dogs,NA,2,1565294012552,2,NA,This is a ,3,These are both,NA,great dane,warmup1
260,swordfish,Thu Aug 08 2019 15:53:32 GMT-0400 (Eastern Daylight Time),NA,7,warmup/goldfish.png,swordfish,This is a ,,,3DZKABX2ZITX9NOG2TPGYBNW9CYCV1,fish,sarah,3EJJQNKU9STZK8G85339WPRXNW3RH9,goldfish,yes,Please label the pictures below.,NA,NA,20,NA,,warmup/swordfish.jpg,fish,graduated_high_school,AWNQ9E62XRB0O,English,male,NA,fish,NA,3,1565294012552,1,NA,This is a ,3,These are both,NA,goldfish,warmup1
260,NA,Thu Aug 08 2019 15:53:32 GMT-0400 (Eastern Daylight Time),images/dog-parade2.png,7,NA,NA,That's a big ,,,3DZKABX2ZITX9NOG2TPGYBNW9CYCV1,dogs,sarah,3EJJQNKU9STZK8G85339WPRXNW3RH9,NA,yes,This one is also in the parade.,prenominal,You say to your friend:,20,dog,,NA,NA,graduated_high_school,AWNQ9E62XRB0O,English,male,,NA,You see a parade of animals.,1,1565294012552,NA,images/great-dane.png,NA,3,,big,NA,main1
260,NA,Thu Aug 08 2019 15:53:32 GMT-0400 (Eastern Daylight Time),images/fish-parade2.png,7,NA,NA,That's a small ,,,3DZKABX2ZITX9NOG2TPGYBNW9CYCV1,fish,sarah,3EJJQNKU9STZK8G85339WPRXNW3RH9,NA,yes,This one is also in the parade.,prenominal,You say to your friend:,20,fish,,NA,NA,graduated_high_school,AWNQ9E62XRB0O,English,male,,NA,You see a parade of animals.,2,1565294012552,NA,images/clownfish.png,NA,3,,small,NA,main1
260,NA,Thu Aug 08 2019 15:53:32 GMT-0400 (Eastern Daylight Time),images/fish-parade.png,7,NA,NA,That's a big ,,,3DZKABX2ZITX9NOG2TPGYBNW9CYCV1,fish,sarah,3EJJQNKU9STZK8G85339WPRXNW3RH9,NA,yes,This one is also in the parade.,prenominal,You say to your friend:,20,fish,,NA,NA,graduated_high_school,AWNQ9E62XRB0O,English,male,,NA,You see a parade of animals.,3,1565294012552,NA,images/swordfish.png,NA,3,,big,NA,main1
260,goose,Thu Aug 08 2019 15:53:32 GMT-0400 (Eastern Daylight Time),NA,7,warmup/canary.jpg,swan,This is a ,,,3DZKABX2ZITX9NOG2TPGYBNW9CYCV1,birds,sarah,3EJJQNKU9STZK8G85339WPRXNW3RH9,canary,yes,Please label the pictures below.,NA,NA,20,NA,,warmup/swan.jpg,birds,graduated_high_school,AWNQ9E62XRB0O,English,male,NA,birds,NA,1,1565294012552,1,NA,This is a ,3,These are both,NA,bird,warmup2
260,swan,Thu Aug 08 2019 15:53:32 GMT-0400 (Eastern Daylight Time),NA,7,warmup/canary.jpg,swan,This is a ,,,3DZKABX2ZITX9NOG2TPGYBNW9CYCV1,birds,sarah,3EJJQNKU9STZK8G85339WPRXNW3RH9,canary,yes,Please label the pictures below.,NA,NA,20,NA,,warmup/swan.jpg,birds,graduated_high_school,AWNQ9E62XRB0O,English,male,NA,birds,NA,1,1565294012552,2,NA,This is a ,3,These are both,NA,canary,warmup2
260,bluejay,Thu Aug 08 2019 15:53:32 GMT-0400 (Eastern Daylight Time),NA,7,warmup/eagle.jpg,hummingbird,This is a ,,,3DZKABX2ZITX9NOG2TPGYBNW9CYCV1,birds,sarah,3EJJQNKU9STZK8G85339WPRXNW3RH9,eagle,yes,Please label the pictures below.,NA,NA,20,NA,,warmup/colibri.jpg,birds,graduated_high_school,AWNQ9E62XRB0O,English,male,NA,birds,NA,2,1565294012552,1,NA,This is an ,3,These are both,NA,eagle,warmup2
260,hummingbird,Thu Aug 08 2019 15:53:32 GMT-0400 (Eastern Daylight Time),NA,7,warmup/eagle.jpg,hummingbird,This is a ,,,3DZKABX2ZITX9NOG2TPGYBNW9CYCV1,birds,sarah,3EJJQNKU9STZK8G85339WPRXNW3RH9,eagle,yes,Please label the pictures below.,NA,NA,20,NA,,warmup/colibri.jpg,birds,graduated_high_school,AWNQ9E62XRB0O,English,male,NA,birds,NA,2,1565294012552,2,NA,This is an ,3,These are both,NA,eagle,warmup2
260,dandelion,Thu Aug 08 2019 15:53:32 GMT-0400 (Eastern Daylight Time),NA,7,warmup/sunflower.png,dandelion,This is a ,,,3DZKABX2ZITX9NOG2TPGYBNW9CYCV1,flowers,sarah,3EJJQNKU9STZK8G85339WPRXNW3RH9,sunflower,yes,Please label the pictures below.,NA,NA,20,NA,,warmup/dandelion.jpg,flowers,graduated_high_school,AWNQ9E62XRB0O,English,male,NA,flowers,NA,3,1565294012552,1,NA,This is a ,3,These are both,NA,sunflower,warmup2
260,NA,Thu Aug 08 2019 15:53:32 GMT-0400 (Eastern Daylight Time),images/bird-parade3.png,7,NA,NA,That's a big ,,,3DZKABX2ZITX9NOG2TPGYBNW9CYCV1,birds,sarah,3EJJQNKU9STZK8G85339WPRXNW3RH9,NA,yes,This one is also in the parade.,prenominal,You say to your friend:,20,bird,,NA,NA,graduated_high_school,AWNQ9E62XRB0O,English,male,,NA,You see a parade of animals.,1,1565294012552,NA,images/swan.png,NA,3,,big,NA,main2
260,NA,Thu Aug 08 2019 15:53:32 GMT-0400 (Eastern Daylight Time),images/flower-parade2.png,7,NA,NA,That's a big ,,,3DZKABX2ZITX9NOG2TPGYBNW9CYCV1,flowers,sarah,3EJJQNKU9STZK8G85339WPRXNW3RH9,NA,yes,This one is also in the collection.,prenominal,You say to your friend:,20,sunflower,,NA,NA,graduated_high_school,AWNQ9E62XRB0O,English,male,,NA,You see a collection of plants.,2,1565294012552,NA,images/sunflower.png,NA,3,,big,NA,main2
260,NA,Thu Aug 08 2019 15:53:32 GMT-0400 (Eastern Daylight Time),images/bird-parade2.png,7,NA,NA,That's a small ,,,3DZKABX2ZITX9NOG2TPGYBNW9CYCV1,birds,sarah,3EJJQNKU9STZK8G85339WPRXNW3RH9,NA,yes,This one is also in the parade.,prenominal,You say to your friend:,20,small,,NA,NA,graduated_high_school,AWNQ9E62XRB0O,English,male,,NA,You see a parade of animals.,3,1565294012552,NA,images/hummingbird.png,NA,3,,small,NA,main2
259,chihuahua,Thu Aug 08 2019 15:47:52 GMT-0400 (Eastern Daylight Time),NA,7,warmup/doberman.png,chihuahua,This is a ,,1,3CVBMEMMXB4MF5Y06N013O490MW7HD,dogs,Margaret,3X65QVEQI1BX02AFERSCZMLI4C9CLV,doberman,yes,Please label the pictures below.,NA,NA,29,NA,,warmup/chihuahua.jpg,dogs,some_college,A2541C8MY0BYV3,English,male,NA,dogs,NA,1,1565293672278,1,NA,This is a ,2.00,These are both,NA,doberman,warmup1
259,pug,Thu Aug 08 2019 15:47:52 GMT-0400 (Eastern Daylight Time),NA,7,warmup/great-dane.jpg,pug,This is a ,,1,3CVBMEMMXB4MF5Y06N013O490MW7HD,dogs,Margaret,3X65QVEQI1BX02AFERSCZMLI4C9CLV,great dane,yes,Please label the pictures below.,NA,NA,29,NA,,warmup/pug.jpg,dogs,some_college,A2541C8MY0BYV3,English,male,NA,dogs,NA,2,1565293672278,1,NA,This is a ,2.00,These are both,NA,german shepherd,warmup1
259,pug,Thu Aug 08 2019 15:47:52 GMT-0400 (Eastern Daylight Time),NA,7,warmup/great-dane.jpg,pug,This is a ,,1,3CVBMEMMXB4MF5Y06N013O490MW7HD,dogs,Margaret,3X65QVEQI1BX02AFERSCZMLI4C9CLV,great dane,yes,Please label the pictures below.,NA,NA,29,NA,,warmup/pug.jpg,dogs,some_college,A2541C8MY0BYV3,English,male,NA,dogs,NA,2,1565293672278,2,NA,This is a ,2.00,These are both,NA,great dane,warmup1
259,duck,Thu Aug 08 2019 15:47:52 GMT-0400 (Eastern Daylight Time),NA,7,warmup/sparrow.jpg,goose,This is a ,,1,3CVBMEMMXB4MF5Y06N013O490MW7HD,birds,Margaret,3X65QVEQI1BX02AFERSCZMLI4C9CLV,sparrow,yes,Please label the pictures below.,NA,NA,29,NA,,warmup/goose.png,birds,some_college,A2541C8MY0BYV3,English,male,NA,birds,NA,3,1565293672278,1,NA,This is a ,2.00,These are both,NA,finch,warmup1
259,goose,Thu Aug 08 2019 15:47:52 GMT-0400 (Eastern Daylight Time),NA,7,warmup/sparrow.jpg,goose,This is a ,,1,3CVBMEMMXB4MF5Y06N013O490MW7HD,birds,Margaret,3X65QVEQI1BX02AFERSCZMLI4C9CLV,sparrow,yes,Please label the pictures below.,NA,NA,29,NA,,warmup/goose.png,birds,some_college,A2541C8MY0BYV3,English,male,NA,birds,NA,3,1565293672278,2,NA,This is a ,2.00,These are both,NA,sparrow,warmup1
259,NA,Thu Aug 08 2019 15:47:52 GMT-0400 (Eastern Daylight Time),images/dog-parade.png,7,NA,NA,That's a small ,,1,3CVBMEMMXB4MF5Y06N013O490MW7HD,dogs,Margaret,3X65QVEQI1BX02AFERSCZMLI4C9CLV,NA,yes,This one is also in the parade.,prenominal,You say to your friend:,29,dog,,NA,NA,some_college,A2541C8MY0BYV3,English,male,,NA,You see a parade of animals.,1,1565293672278,NA,images/chihuahua.png,NA,2.00,,small,NA,main1
259,NA,Thu Aug 08 2019 15:47:52 GMT-0400 (Eastern Daylight Time),images/dog-parade2.png,7,NA,NA,That's a big ,,1,3CVBMEMMXB4MF5Y06N013O490MW7HD,dogs,Margaret,3X65QVEQI1BX02AFERSCZMLI4C9CLV,NA,yes,This one is also in the parade.,prenominal,You say to your friend:,29,great dane,,NA,NA,some_college,A2541C8MY0BYV3,English,male,,NA,You see a parade of animals.,2,1565293672278,NA,images/great-dane.png,NA,2.00,,big,NA,main1
259,NA,Thu Aug 08 2019 15:47:52 GMT-0400 (Eastern Daylight Time),images/bird-parade.png,7,NA,NA,That's a big ,,1,3CVBMEMMXB4MF5Y06N013O490MW7HD,birds,Margaret,3X65QVEQI1BX02AFERSCZMLI4C9CLV,NA,yes,This one is also in the parade.,prenominal,You say to your friend:,29,goose,,NA,NA,some_college,A2541C8MY0BYV3,English,male,,NA,You see a parade of animals.,3,1565293672278,NA,images/goose.png,NA,2.00,,big,NA,main1
259,swan,Thu Aug 08 2019 15:47:52 GMT-0400 (Eastern Daylight Time),NA,7,warmup/canary.jpg,swan,This is a ,,1,3CVBMEMMXB4MF5Y06N013O490MW7HD,birds,Margaret,3X65QVEQI1BX02AFERSCZMLI4C9CLV,canary,yes,Please label the pictures below.,NA,NA,29,NA,,warmup/swan.jpg,birds,some_college,A2541C8MY0BYV3,English,male,NA,birds,NA,1,1565293672278,1,NA,This is a ,2.00,These are both,NA,finch,warmup2
259,swan,Thu Aug 08 2019 15:47:52 GMT-0400 (Eastern Daylight Time),NA,7,warmup/canary.jpg,swan,This is a ,,1,3CVBMEMMXB4MF5Y06N013O490MW7HD,birds,Margaret,3X65QVEQI1BX02AFERSCZMLI4C9CLV,canary,yes,Please label the pictures below.,NA,NA,29,NA,,warmup/swan.jpg,birds,some_college,A2541C8MY0BYV3,English,male,NA,birds,NA,1,1565293672278,2,NA,This is a ,2.00,These are both,NA,canary,warmup2
259,weed,Thu Aug 08 2019 15:47:52 GMT-0400 (Eastern Daylight Time),NA,7,warmup/peony.png,daisy,This is a ,,1,3CVBMEMMXB4MF5Y06N013O490MW7HD,flowers,Margaret,3X65QVEQI1BX02AFERSCZMLI4C9CLV,peony,yes,Please label the pictures below.,NA,NA,29,NA,,warmup/daisy.png,plants,some_college,A2541C8MY0BYV3,English,male,NA,flowers,NA,2,1565293672278,1,NA,This is a ,2.00,These are both,NA,rose,warmup2
259,daisy,Thu Aug 08 2019 15:47:52 GMT-0400 (Eastern Daylight Time),NA,7,warmup/peony.png,daisy,This is a ,,1,3CVBMEMMXB4MF5Y06N013O490MW7HD,flowers,Margaret,3X65QVEQI1BX02AFERSCZMLI4C9CLV,peony,yes,Please label the pictures below.,NA,NA,29,NA,,warmup/daisy.png,flowers,some_college,A2541C8MY0BYV3,English,male,NA,flowers,NA,2,1565293672278,2,NA,This is a ,2.00,These are both,NA,peony,warmup2
259,finch,Thu Aug 08 2019 15:47:52 GMT-0400 (Eastern Daylight Time),NA,7,warmup/eagle.jpg,hummingbird,This is a ,,1,3CVBMEMMXB4MF5Y06N013O490MW7HD,birds,Margaret,3X65QVEQI1BX02AFERSCZMLI4C9CLV,eagle,yes,Please label the pictures below.,NA,NA,29,NA,,warmup/colibri.jpg,birds,some_college,A2541C8MY0BYV3,English,male,NA,birds,NA,3,1565293672278,1,NA,This is an ,2.00,These are both,NA,eagle,warmup2
259,hummingbird,Thu Aug 08 2019 15:47:52 GMT-0400 (Eastern Daylight Time),NA,7,warmup/eagle.jpg,hummingbird,This is a ,,1,3CVBMEMMXB4MF5Y06N013O490MW7HD,birds,Margaret,3X65QVEQI1BX02AFERSCZMLI4C9CLV,eagle,yes,Please label the pictures below.,NA,NA,29,NA,,warmup/colibri.jpg,birds,some_college,A2541C8MY0BYV3,English,male,NA,birds,NA,3,1565293672278,2,NA,This is an ,2.00,These are both,NA,eagle,warmup2
259,NA,Thu Aug 08 2019 15:47:52 GMT-0400 (Eastern Daylight Time),images/flower-parade.png,7,NA,NA,That's a small ,,1,3CVBMEMMXB4MF5Y06N013O490MW7HD,flowers,Margaret,3X65QVEQI1BX02AFERSCZMLI4C9CLV,NA,yes,This one is also in the collection.,prenominal,You say to your friend:,29,daisy,,NA,NA,some_college,A2541C8MY0BYV3,English,male,,NA,You see a collection of plants.,1,1565293672278,NA,images/daisy.png,NA,2.00,,small,NA,main2
259,NA,Thu Aug 08 2019 15:47:52 GMT-0400 (Eastern Daylight Time),images/bird-parade2.png,7,NA,NA,That's a big ,,1,3CVBMEMMXB4MF5Y06N013O490MW7HD,birds,Margaret,3X65QVEQI1BX02AFERSCZMLI4C9CLV,NA,yes,This one is also in the parade.,prenominal,You say to your friend:,29,eagle,,NA,NA,some_college,A2541C8MY0BYV3,English,male,,NA,You see a parade of animals.,2,1565293672278,NA,images/eagle.png,NA,2.00,,big,NA,main2
259,NA,Thu Aug 08 2019 15:47:52 GMT-0400 (Eastern Daylight Time),images/bird-parade3.png,7,NA,NA,That's a big ,,1,3CVBMEMMXB4MF5Y06N013O490MW7HD,birds,Margaret,3X65QVEQI1BX02AFERSCZMLI4C9CLV,NA,yes,This one is also in the parade.,prenominal,You say to your friend:,29,swan,,NA,NA,some_college,A2541C8MY0BYV3,English,male,,NA,You see a parade of animals.,3,1565293672278,NA,images/swan.png,NA,2.00,,big,NA,main2
258,flower,Thu Aug 08 2019 15:44:43 GMT-0400 (Eastern Daylight Time),NA,7,warmup/peony.png,daisy,This is a ,,2,3DZKABX2ZITX9NOG2TPGYBNW9CYCV1,flowers,barbara,3QL2OFSM976NO2D0Q48RCEP7979CNX,peony,yes,Please label the pictures below.,NA,NA,23,NA,,warmup/daisy.png,flowers,graduated_college,AMTTB8JUWRRM7,English,female,NA,flowers,NA,1,1565293483554,1,NA,This is a ,0.75,These are both,NA,flower,warmup1
258,daisy,Thu Aug 08 2019 15:44:43 GMT-0400 (Eastern Daylight Time),NA,7,warmup/peony.png,daisy,This is a ,,2,3DZKABX2ZITX9NOG2TPGYBNW9CYCV1,flowers,barbara,3QL2OFSM976NO2D0Q48RCEP7979CNX,peony,yes,Please label the pictures below.,NA,NA,23,NA,,warmup/daisy.png,flowers,graduated_college,AMTTB8JUWRRM7,English,female,NA,flowers,NA,1,1565293483554,2,NA,This is a ,0.75,These are both,NA,peony,warmup1
258,swan,Thu Aug 08 2019 15:44:43 GMT-0400 (Eastern Daylight Time),NA,7,warmup/canary.jpg,swan,This is a ,,2,3DZKABX2ZITX9NOG2TPGYBNW9CYCV1,birds,barbara,3QL2OFSM976NO2D0Q48RCEP7979CNX,canary,yes,Please label the pictures below.,NA,NA,23,NA,,warmup/swan.jpg,birds,graduated_college,AMTTB8JUWRRM7,English,female,NA,birds,NA,2,1565293483554,1,NA,This is a ,0.75,These are both,NA,goldfinch,warmup1
258,swan,Thu Aug 08 2019 15:44:43 GMT-0400 (Eastern Daylight Time),NA,7,warmup/canary.jpg,swan,This is a ,,2,3DZKABX2ZITX9NOG2TPGYBNW9CYCV1,birds,barbara,3QL2OFSM976NO2D0Q48RCEP7979CNX,canary,yes,Please label the pictures below.,NA,NA,23,NA,,warmup/swan.jpg,birds,graduated_college,AMTTB8JUWRRM7,English,female,NA,birds,NA,2,1565293483554,2,NA,This is a ,0.75,These are both,NA,canary,warmup1
258,tuna,Thu Aug 08 2019 15:44:43 GMT-0400 (Eastern Daylight Time),NA,7,warmup/goldfish.png,swordfish,This is a ,,2,3DZKABX2ZITX9NOG2TPGYBNW9CYCV1,fish,barbara,3QL2OFSM976NO2D0Q48RCEP7979CNX,goldfish,yes,Please label the pictures below.,NA,NA,23,NA,,warmup/swordfish.jpg,fish,graduated_college,AMTTB8JUWRRM7,English,female,NA,fish,NA,3,1565293483554,1,NA,This is a ,0.75,These are both,NA,goldfish,warmup1
258,swordfish,Thu Aug 08 2019 15:44:43 GMT-0400 (Eastern Daylight Time),NA,7,warmup/goldfish.png,swordfish,This is a ,,2,3DZKABX2ZITX9NOG2TPGYBNW9CYCV1,fish,barbara,3QL2OFSM976NO2D0Q48RCEP7979CNX,goldfish,yes,Please label the pictures below.,NA,NA,23,NA,,warmup/swordfish.jpg,fish,graduated_college,AMTTB8JUWRRM7,English,female,NA,fish,NA,3,1565293483554,2,NA,This is a ,0.75,These are both,NA,goldfish,warmup1
258,NA,Thu Aug 08 2019 15:44:43 GMT-0400 (Eastern Daylight Time),images/fish-parade.png,7,NA,NA,That's a small ,,2,3DZKABX2ZITX9NOG2TPGYBNW9CYCV1,fish,barbara,3QL2OFSM976NO2D0Q48RCEP7979CNX,NA,yes,This one is also in the parade.,prenominal,You say to your friend:,23,fish,,NA,NA,graduated_college,AMTTB8JUWRRM7,English,female,,NA,You see a parade of animals.,1,1565293483554,NA,images/goldfish.png,NA,0.75,,small,NA,main1
258,NA,Thu Aug 08 2019 15:44:43 GMT-0400 (Eastern Daylight Time),images/bird-parade3.png,7,NA,NA,That's a big ,,2,3DZKABX2ZITX9NOG2TPGYBNW9CYCV1,birds,barbara,3QL2OFSM976NO2D0Q48RCEP7979CNX,NA,yes,This one is also in the parade.,prenominal,You say to your friend:,23,swan,,NA,NA,graduated_college,AMTTB8JUWRRM7,English,female,,NA,You see a parade of animals.,2,1565293483554,NA,images/swan.png,NA,0.75,,big,NA,main1
258,NA,Thu Aug 08 2019 15:44:43 GMT-0400 (Eastern Daylight Time),images/flower-parade.png,7,NA,NA,That's a small ,,2,3DZKABX2ZITX9NOG2TPGYBNW9CYCV1,flowers,barbara,3QL2OFSM976NO2D0Q48RCEP7979CNX,NA,yes,This one is also in the collection.,prenominal,You say to your friend:,23,flower,,NA,NA,graduated_college,AMTTB8JUWRRM7,English,female,,NA,You see a collection of plants.,3,1565293483554,NA,images/daisy.png,NA,0.75,,small,NA,main1
258,dandelion,Thu Aug 08 2019 15:44:43 GMT-0400 (Eastern Daylight Time),NA,7,warmup/sunflower.png,dandelion,This is a ,,2,3DZKABX2ZITX9NOG2TPGYBNW9CYCV1,flowers,barbara,3QL2OFSM976NO2D0Q48RCEP7979CNX,sunflower,yes,Please label the pictures below.,NA,NA,23,NA,,warmup/dandelion.jpg,flowers,graduated_college,AMTTB8JUWRRM7,English,female,NA,flowers,NA,1,1565293483554,1,NA,This is a ,0.75,These are both,NA,sunflower,warmup2
258,bass,Thu Aug 08 2019 15:44:43 GMT-0400 (Eastern Daylight Time),NA,7,warmup/clownfish.jpg,tuna,This is a ,,2,3DZKABX2ZITX9NOG2TPGYBNW9CYCV1,fish,barbara,3QL2OFSM976NO2D0Q48RCEP7979CNX,clownfish,yes,Please label the pictures below.,NA,NA,23,NA,,warmup/tuna.jpg,fish,graduated_college,AMTTB8JUWRRM7,English,female,NA,fish,NA,2,1565293483554,1,NA,This is a ,0.75,These are both,NA,clownfish,warmup2
258,tuna,Thu Aug 08 2019 15:44:43 GMT-0400 (Eastern Daylight Time),NA,7,warmup/clownfish.jpg,tuna,This is a ,,2,3DZKABX2ZITX9NOG2TPGYBNW9CYCV1,fish,barbara,3QL2OFSM976NO2D0Q48RCEP7979CNX,clownfish,yes,Please label the pictures below.,NA,NA,23,NA,,warmup/tuna.jpg,fish,graduated_college,AMTTB8JUWRRM7,English,female,NA,fish,NA,2,1565293483554,2,NA,This is a ,0.75,These are both,NA,clownfish,warmup2
258,goose,Thu Aug 08 2019 15:44:43 GMT-0400 (Eastern Daylight Time),NA,7,warmup/sparrow.jpg,goose,This is a ,,2,3DZKABX2ZITX9NOG2TPGYBNW9CYCV1,birds,barbara,3QL2OFSM976NO2D0Q48RCEP7979CNX,sparrow,yes,Please label the pictures below.,NA,NA,23,NA,,warmup/goose.png,birds,graduated_college,AMTTB8JUWRRM7,English,female,NA,birds,NA,3,1565293483554,1,NA,This is a ,0.75,These are both,NA,sparrow,warmup2
258,NA,Thu Aug 08 2019 15:44:43 GMT-0400 (Eastern Daylight Time),images/bird-parade.png,7,NA,NA,That's a small ,,2,3DZKABX2ZITX9NOG2TPGYBNW9CYCV1,birds,barbara,3QL2OFSM976NO2D0Q48RCEP7979CNX,NA,yes,This one is also in the parade.,prenominal,You say to your friend:,23,bird,,NA,NA,graduated_college,AMTTB8JUWRRM7,English,female,,NA,You see a parade of animals.,1,1565293483554,NA,images/sparrow.png,NA,0.75,,small,NA,main2
258,NA,Thu Aug 08 2019 15:44:43 GMT-0400 (Eastern Daylight Time),images/flower-parade2.png,7,NA,NA,That's a big ,,2,3DZKABX2ZITX9NOG2TPGYBNW9CYCV1,flowers,barbara,3QL2OFSM976NO2D0Q48RCEP7979CNX,NA,yes,This one is also in the collection.,prenominal,You say to your friend:,23,flower,,NA,NA,graduated_college,AMTTB8JUWRRM7,English,female,,NA,You see a collection of plants.,2,1565293483554,NA,images/sunflower.png,NA,0.75,,big,NA,main2
258,NA,Thu Aug 08 2019 15:44:43 GMT-0400 (Eastern Daylight Time),images/fish-parade2.png,7,NA,NA,That's a big ,,2,3DZKABX2ZITX9NOG2TPGYBNW9CYCV1,fish,barbara,3QL2OFSM976NO2D0Q48RCEP7979CNX,NA,yes,This one is also in the parade.,prenominal,You say to your friend:,23,fish,,NA,NA,graduated_college,AMTTB8JUWRRM7,English,female,,NA,You see a parade of animals.,3,1565293483554,NA,images/tuna.png,NA,0.75,,big,NA,main2
