submission_id,response1,context_picture,experiment_id,picture2,correct1,question1,problems,enjoyment,item,botresponse,correct2,understand,text,condition,sentence,age,response,comments,picture1,response3,education,languages,sex,RT,correct3,context,trial_number,startTime,attempts,picture,question3,fairprice,question2,size,response2,trial_name
433,swan,NA,10,warmup/canary.jpg,swan,This is a,NA,NA,birds,patricia,canary,yes,Please label the pictures below.,NA,NA,28,NA,NA,warmup/swan.jpg,birds,NA,NA,NA,NA,birds,NA,1,1566833149190,1,NA,This is a,NA,These are both,NA,hummingbird,warmup1
433,swan,NA,10,warmup/canary.jpg,swan,This is a,NA,NA,birds,patricia,canary,yes,Please label the pictures below.,NA,NA,28,NA,NA,warmup/swan.jpg,birds,NA,NA,NA,NA,birds,NA,1,1566833149190,2,NA,This is a,NA,These are both,NA,canary,warmup1
433,swordfish,NA,10,warmup/goldfish.png,swordfish,This is a,NA,NA,fish,patricia,goldfish,yes,Please label the pictures below.,NA,NA,28,NA,NA,warmup/swordfish.jpg,fish,NA,NA,NA,NA,fish,NA,2,1566833149190,1,NA,This is a,NA,These are both,NA,redfush,warmup1
433,swordfish,NA,10,warmup/goldfish.png,swordfish,This is a,NA,NA,fish,patricia,goldfish,yes,Please label the pictures below.,NA,NA,28,NA,NA,warmup/swordfish.jpg,fish,NA,NA,NA,NA,fish,NA,2,1566833149190,2,NA,This is a,NA,These are both,NA,goldfish,warmup1
433,dog,NA,10,warmup/doberman.png,chihuahua,This is a,NA,NA,dogs,patricia,doberman,yes,Please label the pictures below.,NA,NA,28,NA,NA,warmup/chihuahua.jpg,dogs,NA,NA,NA,NA,dogs,NA,3,1566833149190,1,NA,This is a,NA,These are both,NA,dogs,warmup1
433,chihuahua,NA,10,warmup/doberman.png,chihuahua,This is a,NA,NA,dogs,patricia,doberman,yes,Please label the pictures below.,NA,NA,28,NA,NA,warmup/chihuahua.jpg,dogs,NA,NA,NA,NA,dogs,NA,3,1566833149190,2,NA,This is a,NA,These are both,NA,doberman,warmup1
433,NA,images/dog-parade.png,10,NA,NA,That's a big,NA,NA,dogs,patricia,NA,yes,This one is also in the parade.,prenominal,You say to your friend:,28,doberman,NA,NA,NA,NA,NA,NA,NA,NA,You see a parade of animals.,1,1566833149190,NA,images/doberman.png,NA,NA,NA,big,NA,main1
433,NA,images/bird-parade3.png,10,NA,NA,That's a small,NA,NA,birds,patricia,NA,yes,This one is also in the parade.,prenominal,You say to your friend:,28,canary,NA,NA,NA,NA,NA,NA,NA,NA,You see a parade of animals.,2,1566833149190,NA,images/canary.png,NA,NA,NA,small,NA,main1
433,NA,images/fish-parade.png,10,NA,NA,That's a small,NA,NA,fish,patricia,NA,yes,This one is also in the parade.,prenominal,You say to your friend:,28,goldfish,NA,NA,NA,NA,NA,NA,NA,NA,You see a parade of animals.,3,1566833149190,NA,images/goldfish.png,NA,NA,NA,small,NA,main1
433,daisy,NA,10,warmup/peony.png,daisy,This is a,NA,NA,flowers,patricia,peony,yes,Please label the pictures below.,NA,NA,28,NA,NA,warmup/daisy.png,flowers,NA,NA,NA,NA,flowers,NA,1,1566833149190,1,NA,This is a,NA,These are both,NA,rose,warmup2
433,daisy,NA,10,warmup/peony.png,daisy,This is a,NA,NA,flowers,patricia,peony,yes,Please label the pictures below.,NA,NA,28,NA,NA,warmup/daisy.png,flowers,NA,NA,NA,NA,flowers,NA,1,1566833149190,2,NA,This is a,NA,These are both,NA,peony,warmup2
433,redwood,NA,10,warmup/bonsai.jpg,redwood|sequoia,This is a,NA,NA,trees,patricia,bonsai,yes,Please label the pictures below.,NA,NA,28,NA,NA,warmup/sequoia.jpg,trees,NA,NA,NA,NA,trees,NA,2,1566833149190,1,NA,This is a,NA,These are both,NA,bonsai,warmup2
433,daisy,NA,10,warmup/sunflower.png,dandelion,This is a,NA,NA,flowers,patricia,sunflower,yes,Please label the pictures below.,NA,NA,28,NA,NA,warmup/dandelion.jpg,flowers,NA,NA,NA,NA,flowers,NA,3,1566833149190,1,NA,This is a,NA,These are both,NA,sunflower,warmup2
433,dandelion,NA,10,warmup/sunflower.png,dandelion,This is a,NA,NA,flowers,patricia,sunflower,yes,Please label the pictures below.,NA,NA,28,NA,NA,warmup/dandelion.jpg,flowers,NA,NA,NA,NA,flowers,NA,3,1566833149190,2,NA,This is a,NA,These are both,NA,SUNFLOWER,warmup2
433,NA,images/tree-parade.png,10,NA,NA,That's a big,NA,NA,trees,patricia,NA,yes,This one is also in the landscape.,prenominal,You say to your friend:,28,redwood,NA,NA,NA,NA,NA,NA,NA,NA,You see the following items in a landscape.,1,1566833149190,NA,images/sequoia.png,NA,NA,NA,big,NA,main2
433,NA,images/flower-parade.png,10,NA,NA,That's a big,NA,NA,flowers,patricia,NA,yes,This one is also in the collection.,prenominal,You say to your friend:,28,dandelion,NA,NA,NA,NA,NA,NA,NA,NA,You see a collection of plants.,2,1566833149190,NA,images/peony.png,NA,NA,NA,big,NA,main2
433,NA,images/flower-parade2.png,10,NA,NA,That's a small,NA,NA,flowers,patricia,NA,yes,This one is also in the collection.,prenominal,You say to your friend:,28,daisy,NA,NA,NA,NA,NA,NA,NA,NA,You see a collection of plants.,3,1566833149190,NA,images/dandelion.png,NA,NA,NA,small,NA,main2
432,hummingbird,NA,10,warmup/eagle.jpg,hummingbird,This is a,I had no problems,2,birds,sarah,eagle,yes,Please label the pictures below.,NA,NA,37,NA,"I have none, thanks!",warmup/colibri.jpg,birds,graduated_college,english,male,NA,birds,NA,1,1566832610147,1,NA,This is an,1,These are both,NA,eagle,warmup1
432,tuna,NA,10,warmup/clownfish.jpg,tuna,This is a,I had no problems,2,fish,sarah,clownfish,yes,Please label the pictures below.,NA,NA,37,NA,"I have none, thanks!",warmup/tuna.jpg,fish,graduated_college,english,male,NA,fish,NA,2,1566832610147,1,NA,This is a,1,These are both,NA,nemo,warmup1
432,tuna,NA,10,warmup/clownfish.jpg,tuna,This is a,I had no problems,2,fish,sarah,clownfish,yes,Please label the pictures below.,NA,NA,37,NA,"I have none, thanks!",warmup/tuna.jpg,fish,graduated_college,english,male,NA,fish,NA,2,1566832610147,2,NA,This is a,1,These are both,NA,clownfish,warmup1
432,swordfish,NA,10,warmup/goldfish.png,swordfish,This is a,I had no problems,2,fish,sarah,goldfish,yes,Please label the pictures below.,NA,NA,37,NA,"I have none, thanks!",warmup/swordfish.jpg,fish,graduated_college,english,male,NA,fish,NA,3,1566832610147,1,NA,This is a,1,These are both,NA,goldfish,warmup1
432,NA,images/fish-parade2.png,10,NA,NA,That's a small,I had no problems,2,fish,sarah,NA,yes,This one is also in the parade.,prenominal,You say to your friend:,37,clownfish,"I have none, thanks!",NA,NA,graduated_college,english,male,NA,NA,You see a parade of animals.,1,1566832610147,NA,images/clownfish.png,NA,1,NA,small,NA,main1
432,NA,images/bird-parade2.png,10,NA,NA,That's a big,I had no problems,2,birds,sarah,NA,yes,This one is also in the parade.,prenominal,You say to your friend:,37,eagle,"I have none, thanks!",NA,NA,graduated_college,english,male,NA,NA,You see a parade of animals.,2,1566832610147,NA,images/eagle.png,NA,1,NA,big,NA,main1
432,NA,images/fish-parade.png,10,NA,NA,That's a small,I had no problems,2,fish,sarah,NA,yes,This one is also in the parade.,prenominal,You say to your friend:,37,goldfish,"I have none, thanks!",NA,NA,graduated_college,english,male,NA,NA,You see a parade of animals.,3,1566832610147,NA,images/goldfish.png,NA,1,NA,small,NA,main1
432,dog,NA,10,warmup/great-dane.jpg,pug,This is a,I had no problems,2,dogs,sarah,great dane,yes,Please label the pictures below.,NA,NA,37,NA,"I have none, thanks!",warmup/pug.jpg,dogs,graduated_college,english,male,NA,dogs,NA,1,1566832610147,1,NA,This is a,1,These are both,NA,great dane,warmup2
432,pug,NA,10,warmup/great-dane.jpg,pug,This is a,I had no problems,2,dogs,sarah,great dane,yes,Please label the pictures below.,NA,NA,37,NA,"I have none, thanks!",warmup/pug.jpg,dogs,graduated_college,english,male,NA,dogs,NA,1,1566832610147,2,NA,This is a,1,These are both,NA,great dane,warmup2
432,swan,NA,10,warmup/canary.jpg,swan,This is a,I had no problems,2,birds,sarah,canary,yes,Please label the pictures below.,NA,NA,37,NA,"I have none, thanks!",warmup/swan.jpg,birds,graduated_college,english,male,NA,birds,NA,2,1566832610147,1,NA,This is a,1,These are both,NA,wren,warmup2
432,swan,NA,10,warmup/canary.jpg,swan,This is a,I had no problems,2,birds,sarah,canary,yes,Please label the pictures below.,NA,NA,37,NA,"I have none, thanks!",warmup/swan.jpg,birds,graduated_college,english,male,NA,birds,NA,2,1566832610147,2,NA,This is a,1,These are both,NA,canary,warmup2
432,daisy,NA,10,warmup/sunflower.png,dandelion,This is a,I had no problems,2,flowers,sarah,sunflower,yes,Please label the pictures below.,NA,NA,37,NA,"I have none, thanks!",warmup/dandelion.jpg,flower,graduated_college,english,male,NA,flowers,NA,3,1566832610147,1,NA,This is a,1,These are both,NA,sunflower,warmup2
432,dandelion,NA,10,warmup/sunflower.png,dandelion,This is a,I had no problems,2,flowers,sarah,sunflower,yes,Please label the pictures below.,NA,NA,37,NA,"I have none, thanks!",warmup/dandelion.jpg,flowers,graduated_college,english,male,NA,flowers,NA,3,1566832610147,2,NA,This is a,1,These are both,NA,sunflower,warmup2
432,NA,images/flower-parade2.png,10,NA,NA,That's a big,I had no problems,2,flowers,sarah,NA,yes,This one is also in the collection.,prenominal,You say to your friend:,37,sunflower,"I have none, thanks!",NA,NA,graduated_college,english,male,NA,NA,You see a collection of plants.,1,1566832610147,NA,images/sunflower.png,NA,1,NA,big,NA,main2
432,NA,images/bird-parade3.png,10,NA,NA,That's a small,I had no problems,2,birds,sarah,NA,yes,This one is also in the parade.,prenominal,You say to your friend:,37,canary,"I have none, thanks!",NA,NA,graduated_college,english,male,NA,NA,You see a parade of animals.,2,1566832610147,NA,images/canary.png,NA,1,NA,small,NA,main2
432,NA,images/dog-parade2.png,10,NA,NA,That's a big,I had no problems,2,dogs,sarah,NA,yes,This one is also in the parade.,prenominal,You say to your friend:,37,great dane,"I have none, thanks!",NA,NA,graduated_college,english,male,NA,NA,You see a parade of animals.,3,1566832610147,NA,images/great-dane.png,NA,1,NA,big,NA,main2
431,kingfish,NA,10,warmup/goldfish.png,swordfish,This is a,no problems,2,fish,sarah,goldfish,yes,Please label the pictures below.,NA,NA,67,NA,NA,warmup/swordfish.jpg,fish,some_college,english,female,NA,fish,NA,1,1566832853898,1,NA,This is a,1,These are both,NA,goldfish,warmup1
431,swordfish,NA,10,warmup/goldfish.png,swordfish,This is a,no problems,2,fish,sarah,goldfish,yes,Please label the pictures below.,NA,NA,67,NA,NA,warmup/swordfish.jpg,fish,some_college,english,female,NA,fish,NA,1,1566832853898,2,NA,This is a,1,These are both,NA,goldfish,warmup1
431,swan,NA,10,warmup/canary.jpg,swan,This is a,no problems,2,birds,sarah,canary,yes,Please label the pictures below.,NA,NA,67,NA,NA,warmup/swan.jpg,birds,some_college,english,female,NA,birds,NA,2,1566832853898,1,NA,This is a,1,These are both,NA,canary,warmup1
431,redwood,NA,10,warmup/bonsai.jpg,redwood|sequoia,This is a,no problems,2,trees,sarah,bonsai,yes,Please label the pictures below.,NA,NA,67,NA,NA,warmup/sequoia.jpg,trees,some_college,english,female,NA,trees,NA,3,1566832853898,1,NA,This is a,1,These are both,NA,japanese,warmup1
431,redwood,NA,10,warmup/bonsai.jpg,redwood|sequoia,This is a,no problems,2,trees,sarah,bonsai,yes,Please label the pictures below.,NA,NA,67,NA,NA,warmup/sequoia.jpg,trees,some_college,english,female,NA,trees,NA,3,1566832853898,2,NA,This is a,1,These are both,NA,bonsai,warmup1
431,NA,images/fish-parade.png,10,NA,NA,That's a big,no problems,2,fish,sarah,NA,yes,This one is also in the parade.,prenominal,You say to your friend:,67,fish,NA,NA,NA,some_college,english,female,NA,NA,You see a parade of animals.,1,1566832853898,NA,images/swordfish.png,NA,1,NA,big,NA,main1
431,NA,images/bird-parade3.png,10,NA,NA,That's a big,no problems,2,birds,sarah,NA,yes,This one is also in the parade.,prenominal,You say to your friend:,67,swan,NA,NA,NA,some_college,english,female,NA,NA,You see a parade of animals.,2,1566832853898,NA,images/swan.png,NA,1,NA,big,NA,main1
431,NA,images/tree-parade.png,10,NA,NA,That's a big,no problems,2,trees,sarah,NA,yes,This one is also in the landscape.,prenominal,You say to your friend:,67,tree,NA,NA,NA,some_college,english,female,NA,NA,You see the following items in a landscape.,3,1566832853898,NA,images/sequoia.png,NA,1,NA,big,NA,main1
431,chihuahua,NA,10,warmup/doberman.png,chihuahua,This is a,no problems,2,dogs,sarah,doberman,yes,Please label the pictures below.,NA,NA,67,NA,NA,warmup/chihuahua.jpg,dogs,some_college,english,female,NA,dogs,NA,1,1566832853898,1,NA,This is a,1,These are both,NA,great dane,warmup2
431,chihuahua,NA,10,warmup/doberman.png,chihuahua,This is a,no problems,2,dogs,sarah,doberman,yes,Please label the pictures below.,NA,NA,67,NA,NA,warmup/chihuahua.jpg,dogs,some_college,english,female,NA,dogs,NA,1,1566832853898,2,NA,This is a,1,These are both,NA,doberman,warmup2
431,dandelion,NA,10,warmup/sunflower.png,dandelion,This is a,no problems,2,flowers,sarah,sunflower,yes,Please label the pictures below.,NA,NA,67,NA,NA,warmup/dandelion.jpg,flowers,some_college,english,female,NA,flowers,NA,2,1566832853898,1,NA,This is a,1,These are both,NA,sunflower,warmup2
431,bass,NA,10,warmup/clownfish.jpg,tuna,This is a,no problems,2,fish,sarah,clownfish,yes,Please label the pictures below.,NA,NA,67,NA,NA,warmup/tuna.jpg,fish,some_college,english,female,NA,fish,NA,3,1566832853898,1,NA,This is a,1,These are both,NA,lionfish,warmup2
431,tuna,NA,10,warmup/clownfish.jpg,tuna,This is a,no problems,2,fish,sarah,clownfish,yes,Please label the pictures below.,NA,NA,67,NA,NA,warmup/tuna.jpg,fish,some_college,english,female,NA,fish,NA,3,1566832853898,2,NA,This is a,1,These are both,NA,clownfish,warmup2
431,NA,images/fish-parade2.png,10,NA,NA,That's a small,no problems,2,fish,sarah,NA,yes,This one is also in the parade.,prenominal,You say to your friend:,67,fish,NA,NA,NA,some_college,english,female,NA,NA,You see a parade of animals.,1,1566832853898,NA,images/clownfish.png,NA,1,NA,small,NA,main2
431,NA,images/flower-parade2.png,10,NA,NA,That's a small,no problems,2,flowers,sarah,NA,yes,This one is also in the collection.,prenominal,You say to your friend:,67,plant,NA,NA,NA,some_college,english,female,NA,NA,You see a collection of plants.,2,1566832853898,NA,images/dandelion.png,NA,1,NA,small,NA,main2
431,NA,images/dog-parade.png,10,NA,NA,That's a small,no problems,2,dogs,sarah,NA,yes,This one is also in the parade.,prenominal,You say to your friend:,67,dog,NA,NA,NA,some_college,english,female,NA,NA,You see a parade of animals.,3,1566832853898,NA,images/chihuahua.png,NA,1,NA,small,NA,main2
428,swordfish,NA,10,warmup/goldfish.png,swordfish,This is a,NA,2,fish,sarah,goldfish,yes,Please label the pictures below.,NA,NA,33,NA,NA,warmup/swordfish.jpg,fish,some_college,english,female,NA,fish,NA,1,1566832660768,1,NA,This is a,0.85,These are both,NA,goldfish,warmup1
428,chihuahua,NA,10,warmup/doberman.png,chihuahua,This is a,NA,2,dogs,sarah,doberman,yes,Please label the pictures below.,NA,NA,33,NA,NA,warmup/chihuahua.jpg,dogs,some_college,english,female,NA,dogs,NA,2,1566832660768,1,NA,This is a,0.85,These are both,NA,doberman,warmup1
428,tuna,NA,10,warmup/clownfish.jpg,tuna,This is a,NA,2,fish,sarah,clownfish,yes,Please label the pictures below.,NA,NA,33,NA,NA,warmup/tuna.jpg,fish,some_college,english,female,NA,fish,NA,3,1566832660768,1,NA,This is a,0.85,These are both,NA,clownfish,warmup1
428,NA,images/fish-parade.png,10,NA,NA,That's a big,NA,2,fish,sarah,NA,yes,This one is also in the parade.,prenominal,You say to your friend:,33,fish,NA,NA,NA,some_college,english,female,NA,NA,You see a parade of animals.,1,1566832660768,NA,images/swordfish.png,NA,0.85,NA,big,NA,main1
428,NA,images/dog-parade.png,10,NA,NA,That's a small,NA,2,dogs,sarah,NA,yes,This one is also in the parade.,prenominal,You say to your friend:,33,chihuahua,NA,NA,NA,some_college,english,female,NA,NA,You see a parade of animals.,2,1566832660768,NA,images/chihuahua.png,NA,0.85,NA,small,NA,main1
428,NA,images/fish-parade2.png,10,NA,NA,That's a big,NA,2,fish,sarah,NA,yes,This one is also in the parade.,prenominal,You say to your friend:,33,fish,NA,NA,NA,some_college,english,female,NA,NA,You see a parade of animals.,3,1566832660768,NA,images/tuna.png,NA,0.85,NA,big,NA,main1
428,goose,NA,10,warmup/sparrow.jpg,goose,This is a,NA,2,birds,sarah,sparrow,yes,Please label the pictures below.,NA,NA,33,NA,NA,warmup/goose.png,bird,some_college,english,female,NA,birds,NA,1,1566832660768,1,NA,This is a,0.85,These are both,NA,sparrow,warmup2
428,goose,NA,10,warmup/sparrow.jpg,goose,This is a,NA,2,birds,sarah,sparrow,yes,Please label the pictures below.,NA,NA,33,NA,NA,warmup/goose.png,birds,some_college,english,female,NA,birds,NA,1,1566832660768,2,NA,This is a,0.85,These are both,NA,sparrow,warmup2
428,daisy,NA,10,warmup/peony.png,daisy,This is a,NA,2,flowers,sarah,peony,yes,Please label the pictures below.,NA,NA,33,NA,NA,warmup/daisy.png,flower,some_college,english,female,NA,flowers,NA,2,1566832660768,1,NA,This is a,0.85,These are both,NA,rose,warmup2
428,daisy,NA,10,warmup/peony.png,daisy,This is a,NA,2,flowers,sarah,peony,yes,Please label the pictures below.,NA,NA,33,NA,NA,warmup/daisy.png,flowers,some_college,english,female,NA,flowers,NA,2,1566832660768,2,NA,This is a,0.85,These are both,NA,peony,warmup2
428,dandelion,NA,10,warmup/sunflower.png,dandelion,This is a,NA,2,flowers,sarah,sunflower,yes,Please label the pictures below.,NA,NA,33,NA,NA,warmup/dandelion.jpg,flowers,some_college,english,female,NA,flowers,NA,3,1566832660768,1,NA,This is a,0.85,These are both,NA,sunflower,warmup2
428,NA,images/bird-parade.png,10,NA,NA,That's a small,NA,2,birds,sarah,NA,yes,This one is also in the parade.,prenominal,You say to your friend:,33,bird,NA,NA,NA,some_college,english,female,NA,NA,You see a parade of animals.,1,1566832660768,NA,images/sparrow.png,NA,0.85,NA,small,NA,main2
428,NA,images/flower-parade.png,10,NA,NA,That's a big,NA,2,flowers,sarah,NA,yes,This one is also in the collection.,prenominal,You say to your friend:,33,flower,NA,NA,NA,some_college,english,female,NA,NA,You see a collection of plants.,2,1566832660768,NA,images/peony.png,NA,0.85,NA,big,NA,main2
428,NA,images/flower-parade2.png,10,NA,NA,That's a small,NA,2,flowers,sarah,NA,yes,This one is also in the collection.,prenominal,You say to your friend:,33,weed,NA,NA,NA,some_college,english,female,NA,NA,You see a collection of plants.,3,1566832660768,NA,images/dandelion.png,NA,0.85,NA,small,NA,main2
427,dandelion,NA,10,warmup/sunflower.png,dandelion,This is a,No,1,flowers,Jennifer,sunflower,yes,Please label the pictures below.,NA,NA,38,NA,None,warmup/dandelion.jpg,flowers,some_college,English,male,NA,flowers,NA,1,1566832325044,1,NA,This is a,1.5,These are both,NA,sunflower,warmup1
427,goose,NA,10,warmup/sparrow.jpg,goose,This is a,No,1,birds,Jennifer,sparrow,yes,Please label the pictures below.,NA,NA,38,NA,None,warmup/goose.png,birds,some_college,English,male,NA,birds,NA,2,1566832325044,1,NA,This is a,1.5,These are both,NA,sparrow,warmup1
427,marlin,NA,10,warmup/goldfish.png,swordfish,This is a,No,1,fish,Jennifer,goldfish,yes,Please label the pictures below.,NA,NA,38,NA,None,warmup/swordfish.jpg,fish,some_college,English,male,NA,fish,NA,3,1566832325044,1,NA,This is a,1.5,These are both,NA,goldfish,warmup1
427,swordfish,NA,10,warmup/goldfish.png,swordfish,This is a,No,1,fish,Jennifer,goldfish,yes,Please label the pictures below.,NA,NA,38,NA,None,warmup/swordfish.jpg,fish,some_college,English,male,NA,fish,NA,3,1566832325044,2,NA,This is a,1.5,These are both,NA,goldfish,warmup1
427,NA,images/bird-parade.png,10,NA,NA,That's a small,No,1,birds,Jennifer,NA,yes,This one is also in the parade.,prenominal,You say to your friend:,38,bird,None,NA,NA,some_college,English,male,NA,NA,You see a parade of animals.,1,1566832325044,NA,images/sparrow.png,NA,1.5,NA,small,NA,main1
427,NA,images/fish-parade.png,10,NA,NA,That's a small,No,1,fish,Jennifer,NA,yes,This one is also in the parade.,prenominal,You say to your friend:,38,fish,None,NA,NA,some_college,English,male,NA,NA,You see a parade of animals.,2,1566832325044,NA,images/goldfish.png,NA,1.5,NA,small,NA,main1
427,NA,images/flower-parade2.png,10,NA,NA,That's a big,No,1,flowers,Jennifer,NA,yes,This one is also in the collection.,prenominal,You say to your friend:,38,flower,None,NA,NA,some_college,English,male,NA,NA,You see a collection of plants.,3,1566832325044,NA,images/sunflower.png,NA,1.5,NA,big,NA,main1
427,hummingbird,NA,10,warmup/eagle.jpg,hummingbird,This is a,No,1,birds,Jennifer,eagle,yes,Please label the pictures below.,NA,NA,38,NA,None,warmup/colibri.jpg,birds,some_college,English,male,NA,birds,NA,1,1566832325044,1,NA,This is an,1.5,These are both,NA,eagle,warmup2
427,chihuahua,NA,10,warmup/doberman.png,chihuahua,This is a,No,1,dogs,Jennifer,doberman,yes,Please label the pictures below.,NA,NA,38,NA,None,warmup/chihuahua.jpg,dogs,some_college,English,male,NA,dogs,NA,2,1566832325044,1,NA,This is a,1.5,These are both,NA,doberman,warmup2
427,swan,NA,10,warmup/canary.jpg,swan,This is a,No,1,birds,Jennifer,canary,yes,Please label the pictures below.,NA,NA,38,NA,None,warmup/swan.jpg,birds,some_college,English,male,NA,birds,NA,3,1566832325044,1,NA,This is a,1.5,These are both,NA,canary,warmup2
427,NA,images/bird-parade2.png,10,NA,NA,That's a big,No,1,birds,Jennifer,NA,yes,This one is also in the parade.,prenominal,You say to your friend:,38,bird,None,NA,NA,some_college,English,male,NA,NA,You see a parade of animals.,1,1566832325044,NA,images/eagle.png,NA,1.5,NA,big,NA,main2
427,NA,images/dog-parade.png,10,NA,NA,That's a big,No,1,dogs,Jennifer,NA,yes,This one is also in the parade.,prenominal,You say to your friend:,38,dog,None,NA,NA,some_college,English,male,NA,NA,You see a parade of animals.,2,1566832325044,NA,images/doberman.png,NA,1.5,NA,big,NA,main2
427,NA,images/bird-parade3.png,10,NA,NA,That's a small,No,1,birds,Jennifer,NA,yes,This one is also in the parade.,prenominal,You say to your friend:,38,bird,None,NA,NA,some_college,English,male,NA,NA,You see a parade of animals.,3,1566832325044,NA,images/canary.png,NA,1.5,NA,small,NA,main2
423,puppy,NA,10,warmup/great-dane.jpg,pug,This is a,good,2,dogs,linda,great dane,yes,Please label the pictures below.,NA,NA,30,NA,good survey,warmup/pug.jpg,animals,graduated_college,english,male,NA,dogs,NA,1,1566831888118,1,NA,This is a,0.03,These are both,NA,dog,warmup1
423,puppy,NA,10,warmup/great-dane.jpg,pug,This is a,good,2,dogs,linda,great dane,yes,Please label the pictures below.,NA,NA,30,NA,good survey,warmup/pug.jpg,dogs,graduated_college,english,male,NA,dogs,NA,1,1566831888118,2,NA,This is a,0.03,These are both,NA,dog,warmup1
423,puppy,NA,10,warmup/great-dane.jpg,pug,This is a,good,2,dogs,linda,great dane,yes,Please label the pictures below.,NA,NA,30,NA,good survey,warmup/pug.jpg,dogs,graduated_college,english,male,NA,dogs,NA,1,1566831888118,3,NA,This is a,0.03,These are both,NA,dog,warmup1
423,puppy,NA,10,warmup/great-dane.jpg,pug,This is a,good,2,dogs,linda,great dane,yes,Please label the pictures below.,NA,NA,30,NA,good survey,warmup/pug.jpg,dogs,graduated_college,english,male,NA,dogs,NA,1,1566831888118,4,NA,This is a,0.03,These are both,NA,dog,warmup1
423,puppy,NA,10,warmup/great-dane.jpg,pug,This is a,good,2,dogs,linda,great dane,yes,Please label the pictures below.,NA,NA,30,NA,good survey,warmup/pug.jpg,dogs,graduated_college,english,male,NA,dogs,NA,1,1566831888118,5,NA,This is a,0.03,These are both,NA,dog,warmup1
423,puppy,NA,10,warmup/great-dane.jpg,pug,This is a,good,2,dogs,linda,great dane,yes,Please label the pictures below.,NA,NA,30,NA,good survey,warmup/pug.jpg,dogs,graduated_college,english,male,NA,dogs,NA,1,1566831888118,6,NA,This is a,0.03,These are both,NA,dog,warmup1
423,puppy,NA,10,warmup/great-dane.jpg,pug,This is a,good,2,dogs,linda,great dane,yes,Please label the pictures below.,NA,NA,30,NA,good survey,warmup/pug.jpg,dogs,graduated_college,english,male,NA,dogs,NA,1,1566831888118,7,NA,This is a,0.03,These are both,NA,dog,warmup1
423,puppy,NA,10,warmup/great-dane.jpg,pug,This is a,good,2,dogs,linda,great dane,yes,Please label the pictures below.,NA,NA,30,NA,good survey,warmup/pug.jpg,dogs,graduated_college,english,male,NA,dogs,NA,1,1566831888118,8,NA,This is a,0.03,These are both,NA,dog,warmup1
423,pug,NA,10,warmup/great-dane.jpg,pug,This is a,good,2,dogs,linda,great dane,yes,Please label the pictures below.,NA,NA,30,NA,good survey,warmup/pug.jpg,dogs,graduated_college,english,male,NA,dogs,NA,1,1566831888118,9,NA,This is a,0.03,These are both,NA,great dane,warmup1
423,duck,NA,10,warmup/canary.jpg,swan,This is a,good,2,birds,linda,canary,yes,Please label the pictures below.,NA,NA,30,NA,good survey,warmup/swan.jpg,birds,graduated_college,english,male,NA,birds,NA,2,1566831888118,1,NA,This is a,0.03,These are both,NA,sparrow,warmup1
423,swan,NA,10,warmup/canary.jpg,swan,This is a,good,2,birds,linda,canary,yes,Please label the pictures below.,NA,NA,30,NA,good survey,warmup/swan.jpg,birds,graduated_college,english,male,NA,birds,NA,2,1566831888118,2,NA,This is a,0.03,These are both,NA,canary,warmup1
423,bird,NA,10,warmup/eagle.jpg,hummingbird,This is a,good,2,birds,linda,eagle,yes,Please label the pictures below.,NA,NA,30,NA,good survey,warmup/colibri.jpg,bird,graduated_college,english,male,NA,birds,NA,3,1566831888118,1,NA,This is an,0.03,These are both,NA,eagle,warmup1
423,hummingbird,NA,10,warmup/eagle.jpg,hummingbird,This is a,good,2,birds,linda,eagle,yes,Please label the pictures below.,NA,NA,30,NA,good survey,warmup/colibri.jpg,birds,graduated_college,english,male,NA,birds,NA,3,1566831888118,2,NA,This is an,0.03,These are both,NA,eagle,warmup1
423,NA,images/dog-parade2.png,10,NA,NA,That's a big,good,2,dogs,linda,NA,yes,This one is also in the parade.,prenominal,You say to your friend:,30,great dane,good survey,NA,NA,graduated_college,english,male,NA,NA,You see a parade of animals.,1,1566831888118,NA,images/great-dane.png,NA,0.03,NA,big,NA,main1
423,NA,images/bird-parade3.png,10,NA,NA,That's a small,good,2,birds,linda,NA,yes,This one is also in the parade.,prenominal,You say to your friend:,30,sparrow,good survey,NA,NA,graduated_college,english,male,NA,NA,You see a parade of animals.,2,1566831888118,NA,images/canary.png,NA,0.03,NA,small,NA,main1
423,NA,images/bird-parade2.png,10,NA,NA,That's a big,good,2,birds,linda,NA,yes,This one is also in the parade.,prenominal,You say to your friend:,30,eagle,good survey,NA,NA,graduated_college,english,male,NA,NA,You see a parade of animals.,3,1566831888118,NA,images/eagle.png,NA,0.03,NA,big,NA,main1
423,tree,NA,10,warmup/bonsai.jpg,redwood|sequoia,This is a,good,2,trees,linda,bonsai,yes,Please label the pictures below.,NA,NA,30,NA,good survey,warmup/sequoia.jpg,plants,graduated_college,english,male,NA,trees,NA,1,1566831888118,1,NA,This is a,0.03,These are both,NA,plant,warmup2
423,redwood,NA,10,warmup/bonsai.jpg,redwood|sequoia,This is a,good,2,trees,linda,bonsai,yes,Please label the pictures below.,NA,NA,30,NA,good survey,warmup/sequoia.jpg,trees,graduated_college,english,male,NA,trees,NA,1,1566831888118,2,NA,This is a,0.03,These are both,NA,bonsai,warmup2
423,sunflower,NA,10,warmup/peony.png,daisy,This is a,good,2,flowers,linda,peony,yes,Please label the pictures below.,NA,NA,30,NA,good survey,warmup/daisy.png,flowers,graduated_college,english,male,NA,flowers,NA,2,1566831888118,1,NA,This is a,0.03,These are both,NA,rose,warmup2
423,daisy,NA,10,warmup/peony.png,daisy,This is a,good,2,flowers,linda,peony,yes,Please label the pictures below.,NA,NA,30,NA,good survey,warmup/daisy.png,flowers,graduated_college,english,male,NA,flowers,NA,2,1566831888118,2,NA,This is a,0.03,These are both,NA,peony,warmup2
423,yellow flower,NA,10,warmup/sunflower.png,dandelion,This is a,good,2,flowers,linda,sunflower,yes,Please label the pictures below.,NA,NA,30,NA,good survey,warmup/dandelion.jpg,flowers,graduated_college,english,male,NA,flowers,NA,3,1566831888118,1,NA,This is a,0.03,These are both,NA,sunflower,warmup2
423,danedelion,NA,10,warmup/sunflower.png,dandelion,This is a,good,2,flowers,linda,sunflower,yes,Please label the pictures below.,NA,NA,30,NA,good survey,warmup/dandelion.jpg,flowers,graduated_college,english,male,NA,flowers,NA,3,1566831888118,2,NA,This is a,0.03,These are both,NA,sunflower,warmup2
423,dandelion,NA,10,warmup/sunflower.png,dandelion,This is a,good,2,flowers,linda,sunflower,yes,Please label the pictures below.,NA,NA,30,NA,good survey,warmup/dandelion.jpg,flowers,graduated_college,english,male,NA,flowers,NA,3,1566831888118,3,NA,This is a,0.03,These are both,NA,sunflower,warmup2
423,NA,images/flower-parade.png,10,NA,NA,That's a small,good,2,flowers,linda,NA,yes,This one is also in the collection.,prenominal,You say to your friend:,30,dandelion,good survey,NA,NA,graduated_college,english,male,NA,NA,You see a collection of plants.,1,1566831888118,NA,images/daisy.png,NA,0.03,NA,small,NA,main2
423,NA,images/flower-parade2.png,10,NA,NA,That's a big,good,2,flowers,linda,NA,yes,This one is also in the collection.,prenominal,You say to your friend:,30,sunflower,good survey,NA,NA,graduated_college,english,male,NA,NA,You see a collection of plants.,2,1566831888118,NA,images/sunflower.png,NA,0.03,NA,big,NA,main2
423,NA,images/tree-parade.png,10,NA,NA,That's a small,good,2,trees,linda,NA,yes,This one is also in the landscape.,prenominal,You say to your friend:,30,redwood,good survey,NA,NA,graduated_college,english,male,NA,NA,You see the following items in a landscape.,3,1566831888118,NA,images/bonsai.png,NA,0.03,NA,small,NA,main2
422,goose,NA,10,warmup/sparrow.jpg,goose,This is a,Nope.,1,birds,barbara,sparrow,yes,Please label the pictures below.,NA,NA,28,NA,Nope.,warmup/goose.png,birds,graduated_college,English,male,NA,birds,NA,1,1566832104191,1,NA,This is a,1,These are both,NA,finch,warmup1
422,goose,NA,10,warmup/sparrow.jpg,goose,This is a,Nope.,1,birds,barbara,sparrow,yes,Please label the pictures below.,NA,NA,28,NA,Nope.,warmup/goose.png,birds,graduated_college,English,male,NA,birds,NA,1,1566832104191,2,NA,This is a,1,These are both,NA,sparrow,warmup1
422,redwood,NA,10,warmup/bonsai.jpg,redwood|sequoia,This is a,Nope.,1,trees,barbara,bonsai,yes,Please label the pictures below.,NA,NA,28,NA,Nope.,warmup/sequoia.jpg,trees,graduated_college,English,male,NA,trees,NA,2,1566832104191,1,NA,This is a,1,These are both,NA,bonzai,warmup1
422,redwood,NA,10,warmup/bonsai.jpg,redwood|sequoia,This is a,Nope.,1,trees,barbara,bonsai,yes,Please label the pictures below.,NA,NA,28,NA,Nope.,warmup/sequoia.jpg,trees,graduated_college,English,male,NA,trees,NA,2,1566832104191,2,NA,This is a,1,These are both,NA,bonsai,warmup1
422,dandelion,NA,10,warmup/sunflower.png,dandelion,This is a,Nope.,1,flowers,barbara,sunflower,yes,Please label the pictures below.,NA,NA,28,NA,Nope.,warmup/dandelion.jpg,flowers,graduated_college,English,male,NA,flowers,NA,3,1566832104191,1,NA,This is a,1,These are both,NA,sunflower,warmup1
422,NA,images/flower-parade2.png,10,NA,NA,That's a big,Nope.,1,flowers,barbara,NA,yes,This one is also in the collection.,prenominal,You say to your friend:,28,sunflower,Nope.,NA,NA,graduated_college,English,male,NA,NA,You see a collection of plants.,1,1566832104191,NA,images/sunflower.png,NA,1,NA,big,NA,main1
422,NA,images/bird-parade.png,10,NA,NA,That's a big,Nope.,1,birds,barbara,NA,yes,This one is also in the parade.,prenominal,You say to your friend:,28,goose,Nope.,NA,NA,graduated_college,English,male,NA,NA,You see a parade of animals.,2,1566832104191,NA,images/goose.png,NA,1,NA,big,NA,main1
422,NA,images/tree-parade.png,10,NA,NA,That's a small,Nope.,1,trees,barbara,NA,yes,This one is also in the landscape.,prenominal,You say to your friend:,28,bonsai tree,Nope.,NA,NA,graduated_college,English,male,NA,NA,You see the following items in a landscape.,3,1566832104191,NA,images/bonsai.png,NA,1,NA,small,NA,main1
422,lilly,NA,10,warmup/peony.png,daisy,This is a,Nope.,1,flowers,barbara,peony,yes,Please label the pictures below.,NA,NA,28,NA,Nope.,warmup/daisy.png,flowers,graduated_college,English,male,NA,flowers,NA,1,1566832104191,1,NA,This is a,1,These are both,NA,flower,warmup2
422,daisy,NA,10,warmup/peony.png,daisy,This is a,Nope.,1,flowers,barbara,peony,yes,Please label the pictures below.,NA,NA,28,NA,Nope.,warmup/daisy.png,flowers,graduated_college,English,male,NA,flowers,NA,1,1566832104191,2,NA,This is a,1,These are both,NA,peony,warmup2
422,bass,NA,10,warmup/clownfish.jpg,tuna,This is a,Nope.,1,fish,barbara,clownfish,yes,Please label the pictures below.,NA,NA,28,NA,Nope.,warmup/tuna.jpg,fish,graduated_college,English,male,NA,fish,NA,2,1566832104191,1,NA,This is a,1,These are both,NA,clownfish,warmup2
422,tuna,NA,10,warmup/clownfish.jpg,tuna,This is a,Nope.,1,fish,barbara,clownfish,yes,Please label the pictures below.,NA,NA,28,NA,Nope.,warmup/tuna.jpg,fish,graduated_college,English,male,NA,fish,NA,2,1566832104191,2,NA,This is a,1,These are both,NA,clownfish,warmup2
422,chihuahua,NA,10,warmup/doberman.png,chihuahua,This is a,Nope.,1,dogs,barbara,doberman,yes,Please label the pictures below.,NA,NA,28,NA,Nope.,warmup/chihuahua.jpg,dogs,graduated_college,English,male,NA,dogs,NA,3,1566832104191,1,NA,This is a,1,These are both,NA,doberman,warmup2
422,NA,images/fish-parade2.png,10,NA,NA,That's a small,Nope.,1,fish,barbara,NA,yes,This one is also in the parade.,prenominal,You say to your friend:,28,clownfish,Nope.,NA,NA,graduated_college,English,male,NA,NA,You see a parade of animals.,1,1566832104191,NA,images/clownfish.png,NA,1,NA,small,NA,main2
422,NA,images/flower-parade.png,10,NA,NA,That's a big,Nope.,1,flowers,barbara,NA,yes,This one is also in the collection.,prenominal,You say to your friend:,28,peony,Nope.,NA,NA,graduated_college,English,male,NA,NA,You see a collection of plants.,2,1566832104191,NA,images/peony.png,NA,1,NA,big,NA,main2
422,NA,images/dog-parade.png,10,NA,NA,That's a small,Nope.,1,dogs,barbara,NA,yes,This one is also in the parade.,prenominal,You say to your friend:,28,chihuahua,Nope.,NA,NA,graduated_college,English,male,NA,NA,You see a parade of animals.,3,1566832104191,NA,images/chihuahua.png,NA,1,NA,small,NA,main2
418,hummingbird,NA,10,warmup/eagle.jpg,hummingbird,This is a,no,1,birds,margaret,eagle,yes,Please label the pictures below.,NA,NA,38,NA,NA,warmup/colibri.jpg,birds,some_college,english,male,NA,birds,NA,1,1566831946290,1,NA,This is an,1,These are both,NA,eagle,warmup1
418,redwood,NA,10,warmup/bonsai.jpg,redwood|sequoia,This is a,no,1,trees,margaret,bonsai,yes,Please label the pictures below.,NA,NA,38,NA,NA,warmup/sequoia.jpg,trees,some_college,english,male,NA,trees,NA,2,1566831946290,1,NA,This is a,1,These are both,NA,bonsai,warmup1
418,fish,NA,10,warmup/clownfish.jpg,tuna,This is a,no,1,fish,margaret,clownfish,yes,Please label the pictures below.,NA,NA,38,NA,NA,warmup/tuna.jpg,fish,some_college,english,male,NA,fish,NA,3,1566831946290,1,NA,This is a,1,These are both,NA,fish,warmup1
418,tuna,NA,10,warmup/clownfish.jpg,tuna,This is a,no,1,fish,margaret,clownfish,yes,Please label the pictures below.,NA,NA,38,NA,NA,warmup/tuna.jpg,fish,some_college,english,male,NA,fish,NA,3,1566831946290,2,NA,This is a,1,These are both,NA,clownfish,warmup1
418,NA,images/bird-parade2.png,10,NA,NA,That's a big,no,1,birds,margaret,NA,yes,This one is also in the parade.,prenominal,You say to your friend:,38,bird,NA,NA,NA,some_college,english,male,NA,NA,You see a parade of animals.,1,1566831946290,NA,images/eagle.png,NA,1,NA,big,NA,main1
418,NA,images/tree-parade.png,10,NA,NA,That's a small,no,1,trees,margaret,NA,yes,This one is also in the landscape.,prenominal,You say to your friend:,38,tree,NA,NA,NA,some_college,english,male,NA,NA,You see the following items in a landscape.,2,1566831946290,NA,images/bonsai.png,NA,1,NA,small,NA,main1
418,NA,images/fish-parade2.png,10,NA,NA,That's a big,no,1,fish,margaret,NA,yes,This one is also in the parade.,prenominal,You say to your friend:,38,fish,NA,NA,NA,some_college,english,male,NA,NA,You see a parade of animals.,3,1566831946290,NA,images/tuna.png,NA,1,NA,big,NA,main1
418,swan,NA,10,warmup/canary.jpg,swan,This is a,no,1,birds,margaret,canary,yes,Please label the pictures below.,NA,NA,38,NA,NA,warmup/swan.jpg,birds,some_college,english,male,NA,birds,NA,1,1566831946290,1,NA,This is a,1,These are both,NA,canary,warmup2
418,chihuahua,NA,10,warmup/doberman.png,chihuahua,This is a,no,1,dogs,margaret,doberman,yes,Please label the pictures below.,NA,NA,38,NA,NA,warmup/chihuahua.jpg,dogs,some_college,english,male,NA,dogs,NA,2,1566831946290,1,NA,This is a,1,These are both,NA,doberman,warmup2
418,flower,NA,10,warmup/peony.png,daisy,This is a,no,1,flowers,margaret,peony,yes,Please label the pictures below.,NA,NA,38,NA,NA,warmup/daisy.png,flowers,some_college,english,male,NA,flowers,NA,3,1566831946290,1,NA,This is a,1,These are both,NA,flower,warmup2
418,daisy,NA,10,warmup/peony.png,daisy,This is a,no,1,flowers,margaret,peony,yes,Please label the pictures below.,NA,NA,38,NA,NA,warmup/daisy.png,flowers,some_college,english,male,NA,flowers,NA,3,1566831946290,2,NA,This is a,1,These are both,NA,peony,warmup2
418,NA,images/bird-parade3.png,10,NA,NA,That's a big,no,1,birds,margaret,NA,yes,This one is also in the parade.,prenominal,You say to your friend:,38,bird,NA,NA,NA,some_college,english,male,NA,NA,You see a parade of animals.,1,1566831946290,NA,images/swan.png,NA,1,NA,big,NA,main2
418,NA,images/flower-parade.png,10,NA,NA,That's a small,no,1,flowers,margaret,NA,yes,This one is also in the collection.,prenominal,You say to your friend:,38,flower,NA,NA,NA,some_college,english,male,NA,NA,You see a collection of plants.,2,1566831946290,NA,images/daisy.png,NA,1,NA,small,NA,main2
418,NA,images/dog-parade.png,10,NA,NA,That's a small,no,1,dogs,margaret,NA,yes,This one is also in the parade.,prenominal,You say to your friend:,38,dog,NA,NA,NA,some_college,english,male,NA,NA,You see a parade of animals.,3,1566831946290,NA,images/chihuahua.png,NA,1,NA,small,NA,main2
417,tree,NA,10,warmup/bonsai.jpg,redwood|sequoia,This is a,no,2,trees,margaret,bonsai,NA,Please label the pictures below.,NA,NA,NA,NA,NA,warmup/sequoia.jpg,trees,NA,english,NA,NA,trees,NA,1,1566831935329,1,NA,This is a,2,These are both,NA,bonzai,warmup1
417,tree,NA,10,warmup/bonsai.jpg,redwood|sequoia,This is a,no,2,trees,margaret,bonsai,NA,Please label the pictures below.,NA,NA,NA,NA,NA,warmup/sequoia.jpg,trees,NA,english,NA,NA,trees,NA,1,1566831935329,2,NA,This is a,2,These are both,NA,bonsai,warmup1
417,tree,NA,10,warmup/bonsai.jpg,redwood|sequoia,This is a,no,2,trees,margaret,bonsai,NA,Please label the pictures below.,NA,NA,NA,NA,NA,warmup/sequoia.jpg,trees,NA,english,NA,NA,trees,NA,1,1566831935329,3,NA,This is a,2,These are both,NA,bonsai,warmup1
417,redwood,NA,10,warmup/bonsai.jpg,redwood|sequoia,This is a,no,2,trees,margaret,bonsai,NA,Please label the pictures below.,NA,NA,NA,NA,NA,warmup/sequoia.jpg,trees,NA,english,NA,NA,trees,NA,1,1566831935329,4,NA,This is a,2,These are both,NA,bonsai,warmup1
417,hummingbird,NA,10,warmup/eagle.jpg,hummingbird,This is a,no,2,birds,margaret,eagle,NA,Please label the pictures below.,NA,NA,NA,NA,NA,warmup/colibri.jpg,birds,NA,english,NA,NA,birds,NA,2,1566831935329,1,NA,This is an,2,These are both,NA,eagle,warmup1
417,swan,NA,10,warmup/canary.jpg,swan,This is a,no,2,birds,margaret,canary,NA,Please label the pictures below.,NA,NA,NA,NA,NA,warmup/swan.jpg,birds,NA,english,NA,NA,birds,NA,3,1566831935329,1,NA,This is a,2,These are both,NA,canary,warmup1
417,NA,images/tree-parade.png,10,NA,NA,That's a big,no,2,trees,margaret,NA,NA,This one is also in the landscape.,prenominal,You say to your friend:,NA,redwood,NA,NA,NA,NA,english,NA,NA,NA,You see the following items in a landscape.,1,1566831935329,NA,images/sequoia.png,NA,2,NA,big,NA,main1
417,NA,images/bird-parade3.png,10,NA,NA,That's a small,no,2,birds,margaret,NA,NA,This one is also in the parade.,prenominal,You say to your friend:,NA,canary,NA,NA,NA,NA,english,NA,NA,NA,You see a parade of animals.,2,1566831935329,NA,images/canary.png,NA,2,NA,small,NA,main1
417,NA,images/bird-parade2.png,10,NA,NA,That's a small,no,2,birds,margaret,NA,NA,This one is also in the parade.,prenominal,You say to your friend:,NA,hummingbird,NA,NA,NA,NA,english,NA,NA,NA,You see a parade of animals.,3,1566831935329,NA,images/hummingbird.png,NA,2,NA,small,NA,main1
417,tuna,NA,10,warmup/clownfish.jpg,tuna,This is a,no,2,fish,margaret,clownfish,NA,Please label the pictures below.,NA,NA,NA,NA,NA,warmup/tuna.jpg,fish,NA,english,NA,NA,fish,NA,1,1566831935329,1,NA,This is a,2,These are both,NA,clownfish,warmup2
417,swordfish,NA,10,warmup/goldfish.png,swordfish,This is a,no,2,fish,margaret,goldfish,NA,Please label the pictures below.,NA,NA,NA,NA,NA,warmup/swordfish.jpg,fish,NA,english,NA,NA,fish,NA,2,1566831935329,1,NA,This is a,2,These are both,NA,goldfish,warmup2
417,goose,NA,10,warmup/sparrow.jpg,goose,This is a,no,2,birds,margaret,sparrow,NA,Please label the pictures below.,NA,NA,NA,NA,NA,warmup/goose.png,birds,NA,english,NA,NA,birds,NA,3,1566831935329,1,NA,This is a,2,These are both,NA,sparrow,warmup2
417,NA,images/bird-parade.png,10,NA,NA,That's a big,no,2,birds,margaret,NA,NA,This one is also in the parade.,prenominal,You say to your friend:,NA,goose,NA,NA,NA,NA,english,NA,NA,NA,You see a parade of animals.,1,1566831935329,NA,images/goose.png,NA,2,NA,big,NA,main2
417,NA,images/fish-parade2.png,10,NA,NA,That's a big,no,2,fish,margaret,NA,NA,This one is also in the parade.,prenominal,You say to your friend:,NA,tuna,NA,NA,NA,NA,english,NA,NA,NA,You see a parade of animals.,2,1566831935329,NA,images/tuna.png,NA,2,NA,big,NA,main2
417,NA,images/fish-parade.png,10,NA,NA,That's a small,no,2,fish,margaret,NA,NA,This one is also in the parade.,prenominal,You say to your friend:,NA,goldfish,NA,NA,NA,NA,english,NA,NA,NA,You see a parade of animals.,3,1566831935329,NA,images/goldfish.png,NA,2,NA,small,NA,main2
416,hummingbird,NA,10,warmup/eagle.jpg,hummingbird,This is a,no,1,birds,patricia,eagle,yes,Please label the pictures below.,NA,NA,35,NA,NA,warmup/colibri.jpg,birds,graduated_college,english,female,NA,birds,NA,1,1566831714211,1,NA,This is an,100,These are both,NA,eagle,warmup1
416,tuna,NA,10,warmup/clownfish.jpg,tuna,This is a,no,1,fish,patricia,clownfish,yes,Please label the pictures below.,NA,NA,35,NA,NA,warmup/tuna.jpg,fish,graduated_college,english,female,NA,fish,NA,2,1566831714211,1,NA,This is a,100,These are both,NA,clown fish,warmup1
416,tuna,NA,10,warmup/clownfish.jpg,tuna,This is a,no,1,fish,patricia,clownfish,yes,Please label the pictures below.,NA,NA,35,NA,NA,warmup/tuna.jpg,fish,graduated_college,english,female,NA,fish,NA,2,1566831714211,2,NA,This is a,100,These are both,NA,clown fish,warmup1
416,tuna,NA,10,warmup/clownfish.jpg,tuna,This is a,no,1,fish,patricia,clownfish,yes,Please label the pictures below.,NA,NA,35,NA,NA,warmup/tuna.jpg,fish,graduated_college,english,female,NA,fish,NA,2,1566831714211,3,NA,This is a,100,These are both,NA,clownfish,warmup1
416,swordfish,NA,10,warmup/goldfish.png,swordfish,This is a,no,1,fish,patricia,goldfish,yes,Please label the pictures below.,NA,NA,35,NA,NA,warmup/swordfish.jpg,fish,graduated_college,english,female,NA,fish,NA,3,1566831714211,1,NA,This is a,100,These are both,NA,goldfish,warmup1
416,NA,images/fish-parade.png,10,NA,NA,That's a big,no,1,fish,patricia,NA,yes,This one is also in the parade.,prenominal,You say to your friend:,35,swordfish,NA,NA,NA,graduated_college,english,female,NA,NA,You see a parade of animals.,1,1566831714211,NA,images/swordfish.png,NA,100,NA,big,NA,main1
416,NA,images/fish-parade2.png,10,NA,NA,That's a small,no,1,fish,patricia,NA,yes,This one is also in the parade.,prenominal,You say to your friend:,35,clownfish,NA,NA,NA,graduated_college,english,female,NA,NA,You see a parade of animals.,2,1566831714211,NA,images/clownfish.png,NA,100,NA,small,NA,main1
416,NA,images/bird-parade2.png,10,NA,NA,That's a big,no,1,birds,patricia,NA,yes,This one is also in the parade.,prenominal,You say to your friend:,35,eagle,NA,NA,NA,graduated_college,english,female,NA,NA,You see a parade of animals.,3,1566831714211,NA,images/eagle.png,NA,100,NA,big,NA,main1
416,pug,NA,10,warmup/great-dane.jpg,pug,This is a,no,1,dogs,patricia,great dane,yes,Please label the pictures below.,NA,NA,35,NA,NA,warmup/pug.jpg,dogs,graduated_college,english,female,NA,dogs,NA,1,1566831714211,1,NA,This is a,100,These are both,NA,great dane,warmup2
416,swan,NA,10,warmup/sparrow.jpg,goose,This is a,no,1,birds,patricia,sparrow,yes,Please label the pictures below.,NA,NA,35,NA,NA,warmup/goose.png,birds,graduated_college,english,female,NA,birds,NA,2,1566831714211,1,NA,This is a,100,These are both,NA,pigeon,warmup2
416,goose,NA,10,warmup/sparrow.jpg,goose,This is a,no,1,birds,patricia,sparrow,yes,Please label the pictures below.,NA,NA,35,NA,NA,warmup/goose.png,birds,graduated_college,english,female,NA,birds,NA,2,1566831714211,2,NA,This is a,100,These are both,NA,sparrow,warmup2
416,dandelion,NA,10,warmup/sunflower.png,dandelion,This is a,no,1,flowers,patricia,sunflower,yes,Please label the pictures below.,NA,NA,35,NA,NA,warmup/dandelion.jpg,flowers,graduated_college,english,female,NA,flowers,NA,3,1566831714211,1,NA,This is a,100,These are both,NA,sunflower,warmup2
416,NA,images/dog-parade2.png,10,NA,NA,That's a small,no,1,dogs,patricia,NA,yes,This one is also in the parade.,prenominal,You say to your friend:,35,pug,NA,NA,NA,graduated_college,english,female,NA,NA,You see a parade of animals.,1,1566831714211,NA,images/pug.png,NA,100,NA,small,NA,main2
416,NA,images/flower-parade2.png,10,NA,NA,That's a big,no,1,flowers,patricia,NA,yes,This one is also in the collection.,prenominal,You say to your friend:,35,sunflower,NA,NA,NA,graduated_college,english,female,NA,NA,You see a collection of plants.,2,1566831714211,NA,images/sunflower.png,NA,100,NA,big,NA,main2
416,NA,images/bird-parade.png,10,NA,NA,That's a small,no,1,birds,patricia,NA,yes,This one is also in the parade.,prenominal,You say to your friend:,35,pigeon,NA,NA,NA,graduated_college,english,female,NA,NA,You see a parade of animals.,3,1566831714211,NA,images/sparrow.png,NA,100,NA,small,NA,main2
412,hummingbird,NA,10,warmup/eagle.jpg,hummingbird,This is a,no,2,birds,susan,eagle,yes,Please label the pictures below.,NA,NA,44,NA,NA,warmup/colibri.jpg,birds,graduated_college,english,male,NA,birds,NA,1,1566831375290,1,NA,This is an,1,These are both,NA,eagle,warmup1
412,chiuaua,NA,10,warmup/doberman.png,chihuahua,This is a,no,2,dogs,susan,doberman,yes,Please label the pictures below.,NA,NA,44,NA,NA,warmup/chihuahua.jpg,dogs,graduated_college,english,male,NA,dogs,NA,2,1566831375290,1,NA,This is a,1,These are both,NA,doberman,warmup1
412,chihuahua,NA,10,warmup/doberman.png,chihuahua,This is a,no,2,dogs,susan,doberman,yes,Please label the pictures below.,NA,NA,44,NA,NA,warmup/chihuahua.jpg,dogs,graduated_college,english,male,NA,dogs,NA,2,1566831375290,2,NA,This is a,1,These are both,NA,doberman,warmup1
412,daisy,NA,10,warmup/peony.png,daisy,This is a,no,2,flowers,susan,peony,yes,Please label the pictures below.,NA,NA,44,NA,NA,warmup/daisy.png,flowers,graduated_college,english,male,NA,flowers,NA,3,1566831375290,1,NA,This is a,1,These are both,NA,carnation,warmup1
412,daisy,NA,10,warmup/peony.png,daisy,This is a,no,2,flowers,susan,peony,yes,Please label the pictures below.,NA,NA,44,NA,NA,warmup/daisy.png,flowers,graduated_college,english,male,NA,flowers,NA,3,1566831375290,2,NA,This is a,1,These are both,NA,peony,warmup1
412,NA,images/bird-parade2.png,10,NA,NA,That's a big,no,2,birds,susan,NA,yes,This one is also in the parade.,prenominal,You say to your friend:,44,eagle,NA,NA,NA,graduated_college,english,male,NA,NA,You see a parade of animals.,1,1566831375290,NA,images/eagle.png,NA,1,NA,big,NA,main1
412,NA,images/flower-parade.png,10,NA,NA,That's a small,no,2,flowers,susan,NA,yes,This one is also in the collection.,prenominal,You say to your friend:,44,daisy,NA,NA,NA,graduated_college,english,male,NA,NA,You see a collection of plants.,2,1566831375290,NA,images/daisy.png,NA,1,NA,small,NA,main1
412,NA,images/dog-parade.png,10,NA,NA,That's a small,no,2,dogs,susan,NA,yes,This one is also in the parade.,prenominal,You say to your friend:,44,dog,NA,NA,NA,graduated_college,english,male,NA,NA,You see a parade of animals.,3,1566831375290,NA,images/chihuahua.png,NA,1,NA,small,NA,main1
412,mackeral,NA,10,warmup/clownfish.jpg,tuna,This is a,no,2,fish,susan,clownfish,yes,Please label the pictures below.,NA,NA,44,NA,NA,warmup/tuna.jpg,fish,graduated_college,english,male,NA,fish,NA,1,1566831375290,1,NA,This is a,1,These are both,NA,clown fish,warmup2
412,tuna,NA,10,warmup/clownfish.jpg,tuna,This is a,no,2,fish,susan,clownfish,yes,Please label the pictures below.,NA,NA,44,NA,NA,warmup/tuna.jpg,fish\nfish\nfish,graduated_college,english,male,NA,fish,NA,1,1566831375290,2,NA,This is a,1,These are both,NA,clownfish,warmup2
412,tuna,NA,10,warmup/clownfish.jpg,tuna,This is a,no,2,fish,susan,clownfish,yes,Please label the pictures below.,NA,NA,44,NA,NA,warmup/tuna.jpg,fish\nfish\nfish,graduated_college,english,male,NA,fish,NA,1,1566831375290,3,NA,This is a,1,These are both,NA,clownfish,warmup2
412,tuna,NA,10,warmup/clownfish.jpg,tuna,This is a,no,2,fish,susan,clownfish,yes,Please label the pictures below.,NA,NA,44,NA,NA,warmup/tuna.jpg,fish,graduated_college,english,male,NA,fish,NA,1,1566831375290,4,NA,This is a,1,These are both,NA,clownfish,warmup2
412,swordfish,NA,10,warmup/goldfish.png,swordfish,This is a,no,2,fish,susan,goldfish,yes,Please label the pictures below.,NA,NA,44,NA,NA,warmup/swordfish.jpg,fish,graduated_college,english,male,NA,fish,NA,2,1566831375290,1,NA,This is a,1,These are both,NA,godlfish,warmup2
412,swordfish,NA,10,warmup/goldfish.png,swordfish,This is a,no,2,fish,susan,goldfish,yes,Please label the pictures below.,NA,NA,44,NA,NA,warmup/swordfish.jpg,fish,graduated_college,english,male,NA,fish,NA,2,1566831375290,2,NA,This is a,1,These are both,NA,goldfish,warmup2
412,fern,NA,10,warmup/bonsai.jpg,redwood|sequoia,This is a,no,2,trees,susan,bonsai,yes,Please label the pictures below.,NA,NA,44,NA,NA,warmup/sequoia.jpg,trees,graduated_college,english,male,NA,trees,NA,3,1566831375290,1,NA,This is a,1,These are both,NA,bonsai,warmup2
412,redwood,NA,10,warmup/bonsai.jpg,redwood|sequoia,This is a,no,2,trees,susan,bonsai,yes,Please label the pictures below.,NA,NA,44,NA,NA,warmup/sequoia.jpg,trees,graduated_college,english,male,NA,trees,NA,3,1566831375290,2,NA,This is a,1,These are both,NA,bonsai,warmup2
412,NA,images/tree-parade.png,10,NA,NA,That's a big,no,2,trees,susan,NA,yes,This one is also in the landscape.,prenominal,You say to your friend:,44,tree,NA,NA,NA,graduated_college,english,male,NA,NA,You see the following items in a landscape.,1,1566831375290,NA,images/sequoia.png,NA,1,NA,big,NA,main2
412,NA,images/fish-parade2.png,10,NA,NA,That's a big,no,2,fish,susan,NA,yes,This one is also in the parade.,prenominal,You say to your friend:,44,fish,NA,NA,NA,graduated_college,english,male,NA,NA,You see a parade of animals.,2,1566831375290,NA,images/tuna.png,NA,1,NA,big,NA,main2
412,NA,images/fish-parade.png,10,NA,NA,That's a small,no,2,fish,susan,NA,yes,This one is also in the parade.,prenominal,You say to your friend:,44,fish,NA,NA,NA,graduated_college,english,male,NA,NA,You see a parade of animals.,3,1566831375290,NA,images/goldfish.png,NA,1,NA,small,NA,main2
410,tree,NA,10,warmup/bonsai.jpg,redwood|sequoia,This is a,No,2,trees,barbara,bonsai,yes,Please label the pictures below.,NA,NA,26,NA,NA,warmup/sequoia.jpg,tree,graduated_college,English,female,NA,trees,NA,1,1566831559135,1,NA,This is a,1.5,These are both,NA,tree,warmup1
410,redwood,NA,10,warmup/bonsai.jpg,redwood|sequoia,This is a,No,2,trees,barbara,bonsai,yes,Please label the pictures below.,NA,NA,26,NA,NA,warmup/sequoia.jpg,trees,graduated_college,English,female,NA,trees,NA,1,1566831559135,2,NA,This is a,1.5,These are both,NA,bonsai,warmup1
410,Daisy,NA,10,warmup/sunflower.png,dandelion,This is a,No,2,flowers,barbara,sunflower,yes,Please label the pictures below.,NA,NA,26,NA,NA,warmup/dandelion.jpg,flwoers,graduated_college,English,female,NA,flowers,NA,2,1566831559135,1,NA,This is a,1.5,These are both,NA,sunflower,warmup1
410,dandelion,NA,10,warmup/sunflower.png,dandelion,This is a,No,2,flowers,barbara,sunflower,yes,Please label the pictures below.,NA,NA,26,NA,NA,warmup/dandelion.jpg,flowers,graduated_college,English,female,NA,flowers,NA,2,1566831559135,2,NA,This is a,1.5,These are both,NA,sunflower,warmup1
410,Tuna,NA,10,warmup/clownfish.jpg,tuna,This is a,No,2,fish,barbara,clownfish,yes,Please label the pictures below.,NA,NA,26,NA,NA,warmup/tuna.jpg,Fish,graduated_college,English,female,NA,fish,NA,3,1566831559135,1,NA,This is a,1.5,These are both,NA,Clownfish,warmup1
410,NA,images/tree-parade.png,10,NA,NA,That's a big,No,2,trees,barbara,NA,yes,This one is also in the landscape.,prenominal,You say to your friend:,26,tree,NA,NA,NA,graduated_college,English,female,NA,NA,You see the following items in a landscape.,1,1566831559135,NA,images/sequoia.png,NA,1.5,NA,big,NA,main1
410,NA,images/flower-parade2.png,10,NA,NA,That's a big,No,2,flowers,barbara,NA,yes,This one is also in the collection.,prenominal,You say to your friend:,26,sunflower,NA,NA,NA,graduated_college,English,female,NA,NA,You see a collection of plants.,2,1566831559135,NA,images/sunflower.png,NA,1.5,NA,big,NA,main1
410,NA,images/fish-parade2.png,10,NA,NA,That's a small,No,2,fish,barbara,NA,yes,This one is also in the parade.,prenominal,You say to your friend:,26,clownfish,NA,NA,NA,graduated_college,English,female,NA,NA,You see a parade of animals.,3,1566831559135,NA,images/clownfish.png,NA,1.5,NA,small,NA,main1
410,sharphead,NA,10,warmup/goldfish.png,swordfish,This is a,No,2,fish,barbara,goldfish,yes,Please label the pictures below.,NA,NA,26,NA,NA,warmup/swordfish.jpg,Fish,graduated_college,English,female,NA,fish,NA,1,1566831559135,1,NA,This is a,1.5,These are both,NA,Clownfish,warmup2
410,swordfish,NA,10,warmup/goldfish.png,swordfish,This is a,No,2,fish,barbara,goldfish,yes,Please label the pictures below.,NA,NA,26,NA,NA,warmup/swordfish.jpg,Fish,graduated_college,English,female,NA,fish,NA,1,1566831559135,2,NA,This is a,1.5,These are both,NA,goldfish,warmup2
410,chiauahah,NA,10,warmup/doberman.png,chihuahua,This is a,No,2,dogs,barbara,doberman,yes,Please label the pictures below.,NA,NA,26,NA,NA,warmup/chihuahua.jpg,dogs,graduated_college,English,female,NA,dogs,NA,2,1566831559135,1,NA,This is a,1.5,These are both,NA,doberman,warmup2
410,chihuahua,NA,10,warmup/doberman.png,chihuahua,This is a,No,2,dogs,barbara,doberman,yes,Please label the pictures below.,NA,NA,26,NA,NA,warmup/chihuahua.jpg,dogs,graduated_college,English,female,NA,dogs,NA,2,1566831559135,2,NA,This is a,1.5,These are both,NA,doberman,warmup2
410,hummingbird,NA,10,warmup/eagle.jpg,hummingbird,This is a,No,2,birds,barbara,eagle,yes,Please label the pictures below.,NA,NA,26,NA,NA,warmup/colibri.jpg,birds,graduated_college,English,female,NA,birds,NA,3,1566831559135,1,NA,This is an,1.5,These are both,NA,eagle,warmup2
410,NA,images/bird-parade2.png,10,NA,NA,That's a small,No,2,birds,barbara,NA,yes,This one is also in the parade.,prenominal,You say to your friend:,26,hummingbird,NA,NA,NA,graduated_college,English,female,NA,NA,You see a parade of animals.,1,1566831559135,NA,images/hummingbird.png,NA,1.5,NA,small,NA,main2
410,NA,images/fish-parade.png,10,NA,NA,That's a small,No,2,fish,barbara,NA,yes,This one is also in the parade.,prenominal,You say to your friend:,26,goldfish,NA,NA,NA,graduated_college,English,female,NA,NA,You see a parade of animals.,2,1566831559135,NA,images/goldfish.png,NA,1.5,NA,small,NA,main2
410,NA,images/dog-parade.png,10,NA,NA,That's a big,No,2,dogs,barbara,NA,yes,This one is also in the parade.,prenominal,You say to your friend:,26,doberman,NA,NA,NA,graduated_college,English,female,NA,NA,You see a parade of animals.,3,1566831559135,NA,images/doberman.png,NA,1.5,NA,big,NA,main2
408,Chihuahua,NA,10,warmup/doberman.png,chihuahua,This is a,No,1,dogs,sarah,doberman,NA,Please label the pictures below.,NA,NA,NA,NA,NA,warmup/chihuahua.jpg,dogs,NA,NA,NA,NA,dogs,NA,1,1566831411543,1,NA,This is a,1,These are both,NA,Doberman Pinscher,warmup1
408,Chihuahua,NA,10,warmup/doberman.png,chihuahua,This is a,No,1,dogs,sarah,doberman,NA,Please label the pictures below.,NA,NA,NA,NA,NA,warmup/chihuahua.jpg,dogs,NA,NA,NA,NA,dogs,NA,1,1566831411543,2,NA,This is a,1,These are both,NA,doberman Pinscher,warmup1
408,Chihuahua,NA,10,warmup/doberman.png,chihuahua,This is a,No,1,dogs,sarah,doberman,NA,Please label the pictures below.,NA,NA,NA,NA,NA,warmup/chihuahua.jpg,dogs,NA,NA,NA,NA,dogs,NA,1,1566831411543,3,NA,This is a,1,These are both,NA,doberman,warmup1
408,tuna,NA,10,warmup/clownfish.jpg,tuna,This is a,No,1,fish,sarah,clownfish,NA,Please label the pictures below.,NA,NA,NA,NA,NA,warmup/tuna.jpg,fish,NA,NA,NA,NA,fish,NA,2,1566831411543,1,NA,This is a,1,These are both,NA,clown fish,warmup1
408,tuna,NA,10,warmup/clownfish.jpg,tuna,This is a,No,1,fish,sarah,clownfish,NA,Please label the pictures below.,NA,NA,NA,NA,NA,warmup/tuna.jpg,fish,NA,NA,NA,NA,fish,NA,2,1566831411543,2,NA,This is a,1,These are both,NA,clownfish,warmup1
408,swan,NA,10,warmup/canary.jpg,swan,This is a,No,1,birds,sarah,canary,NA,Please label the pictures below.,NA,NA,NA,NA,NA,warmup/swan.jpg,birds,NA,NA,NA,NA,birds,NA,3,1566831411543,1,NA,This is a,1,These are both,NA,canary,warmup1
408,NA,images/dog-parade.png,10,NA,NA,That's a small,No,1,dogs,sarah,NA,NA,This one is also in the parade.,prenominal,You say to your friend:,NA,dog,NA,NA,NA,NA,NA,NA,NA,NA,You see a parade of animals.,1,1566831411543,NA,images/chihuahua.png,NA,1,NA,small,NA,main1
408,NA,images/fish-parade2.png,10,NA,NA,That's a big,No,1,fish,sarah,NA,NA,This one is also in the parade.,prenominal,You say to your friend:,NA,tuna,NA,NA,NA,NA,NA,NA,NA,NA,You see a parade of animals.,2,1566831411543,NA,images/tuna.png,NA,1,NA,big,NA,main1
408,NA,images/bird-parade3.png,10,NA,NA,That's a small,No,1,birds,sarah,NA,NA,This one is also in the parade.,prenominal,You say to your friend:,NA,canary,NA,NA,NA,NA,NA,NA,NA,NA,You see a parade of animals.,3,1566831411543,NA,images/canary.png,NA,1,NA,small,NA,main1
408,goose,NA,10,warmup/sparrow.jpg,goose,This is a,No,1,birds,sarah,sparrow,NA,Please label the pictures below.,NA,NA,NA,NA,NA,warmup/goose.png,birds,NA,NA,NA,NA,birds,NA,1,1566831411543,1,NA,This is a,1,These are both,NA,finch,warmup2
408,goose,NA,10,warmup/sparrow.jpg,goose,This is a,No,1,birds,sarah,sparrow,NA,Please label the pictures below.,NA,NA,NA,NA,NA,warmup/goose.png,birds,NA,NA,NA,NA,birds,NA,1,1566831411543,2,NA,This is a,1,These are both,NA,sparrow,warmup2
408,pug,NA,10,warmup/great-dane.jpg,pug,This is a,No,1,dogs,sarah,great dane,NA,Please label the pictures below.,NA,NA,NA,NA,NA,warmup/pug.jpg,dogs,NA,NA,NA,NA,dogs,NA,2,1566831411543,1,NA,This is a,1,These are both,NA,great dane,warmup2
408,daisey,NA,10,warmup/peony.png,daisy,This is a,No,1,flowers,sarah,peony,NA,Please label the pictures below.,NA,NA,NA,NA,NA,warmup/daisy.png,flowers,NA,NA,NA,NA,flowers,NA,3,1566831411543,1,NA,This is a,1,These are both,NA,peony,warmup2
408,daisy,NA,10,warmup/peony.png,daisy,This is a,No,1,flowers,sarah,peony,NA,Please label the pictures below.,NA,NA,NA,NA,NA,warmup/daisy.png,flowers,NA,NA,NA,NA,flowers,NA,3,1566831411543,2,NA,This is a,1,These are both,NA,peony,warmup2
408,NA,images/bird-parade.png,10,NA,NA,That's a small,No,1,birds,sarah,NA,NA,This one is also in the parade.,prenominal,You say to your friend:,NA,bird,NA,NA,NA,NA,NA,NA,NA,NA,You see a parade of animals.,1,1566831411543,NA,images/sparrow.png,NA,1,NA,small,NA,main2
408,NA,images/dog-parade2.png,10,NA,NA,That's a big,No,1,dogs,sarah,NA,NA,This one is also in the parade.,prenominal,You say to your friend:,NA,dog,NA,NA,NA,NA,NA,NA,NA,NA,You see a parade of animals.,2,1566831411543,NA,images/great-dane.png,NA,1,NA,big,NA,main2
408,NA,images/flower-parade.png,10,NA,NA,That's a big,No,1,flowers,sarah,NA,NA,This one is also in the collection.,prenominal,You say to your friend:,NA,flower,NA,NA,NA,NA,NA,NA,NA,NA,You see a collection of plants.,3,1566831411543,NA,images/peony.png,NA,1,NA,big,NA,main2
406,hummingbird,NA,10,warmup/eagle.jpg,hummingbird,This is a,NA,1,birds,Patricia,eagle,yes,Please label the pictures below.,NA,NA,21,NA,NA,warmup/colibri.jpg,birds,some_college,english,male,NA,birds,NA,1,1566831278478,1,NA,This is an,3,These are both,NA,eagle,warmup1
406,flounder,NA,10,warmup/clownfish.jpg,tuna,This is a,NA,1,fish,Patricia,clownfish,yes,Please label the pictures below.,NA,NA,21,NA,NA,warmup/tuna.jpg,fish,some_college,english,male,NA,fish,NA,2,1566831278478,1,NA,This is a,3,These are both,NA,goldfish,warmup1
406,tuna,NA,10,warmup/clownfish.jpg,tuna,This is a,NA,1,fish,Patricia,clownfish,yes,Please label the pictures below.,NA,NA,21,NA,NA,warmup/tuna.jpg,fish,some_college,english,male,NA,fish,NA,2,1566831278478,2,NA,This is a,3,These are both,NA,goldfish,warmup1
406,tuna,NA,10,warmup/clownfish.jpg,tuna,This is a,NA,1,fish,Patricia,clownfish,yes,Please label the pictures below.,NA,NA,21,NA,NA,warmup/tuna.jpg,fish,some_college,english,male,NA,fish,NA,2,1566831278478,3,NA,This is a,3,These are both,NA,goldfish,warmup1
406,tuna,NA,10,warmup/clownfish.jpg,tuna,This is a,NA,1,fish,Patricia,clownfish,yes,Please label the pictures below.,NA,NA,21,NA,NA,warmup/tuna.jpg,fish,some_college,english,male,NA,fish,NA,2,1566831278478,4,NA,This is a,3,These are both,NA,clownfish,warmup1
406,swawn,NA,10,warmup/canary.jpg,swan,This is a,NA,1,birds,Patricia,canary,yes,Please label the pictures below.,NA,NA,21,NA,NA,warmup/swan.jpg,bird\nbird,some_college,english,male,NA,birds,NA,3,1566831278478,1,NA,This is a,3,These are both,NA,fvdfdf,warmup1
406,sawn,NA,10,warmup/canary.jpg,swan,This is a,NA,1,birds,Patricia,canary,yes,Please label the pictures below.,NA,NA,21,NA,NA,warmup/swan.jpg,bird\nbird,some_college,english,male,NA,birds,NA,3,1566831278478,2,NA,This is a,3,These are both,NA,canary,warmup1
406,swan,NA,10,warmup/canary.jpg,swan,This is a,NA,1,birds,Patricia,canary,yes,Please label the pictures below.,NA,NA,21,NA,NA,warmup/swan.jpg,bird\nbird,some_college,english,male,NA,birds,NA,3,1566831278478,3,NA,This is a,3,These are both,NA,canary,warmup1
406,swan,NA,10,warmup/canary.jpg,swan,This is a,NA,1,birds,Patricia,canary,yes,Please label the pictures below.,NA,NA,21,NA,NA,warmup/swan.jpg,bird\nbirds,some_college,english,male,NA,birds,NA,3,1566831278478,4,NA,This is a,3,These are both,NA,canary,warmup1
406,swan,NA,10,warmup/canary.jpg,swan,This is a,NA,1,birds,Patricia,canary,yes,Please label the pictures below.,NA,NA,21,NA,NA,warmup/swan.jpg,bird\nbirds,some_college,english,male,NA,birds,NA,3,1566831278478,5,NA,This is a,3,These are both,NA,canary,warmup1
406,swan,NA,10,warmup/canary.jpg,swan,This is a,NA,1,birds,Patricia,canary,yes,Please label the pictures below.,NA,NA,21,NA,NA,warmup/swan.jpg,bird\nbirds,some_college,english,male,NA,birds,NA,3,1566831278478,6,NA,This is a,3,These are both,NA,canary,warmup1
406,swan,NA,10,warmup/canary.jpg,swan,This is a,NA,1,birds,Patricia,canary,yes,Please label the pictures below.,NA,NA,21,NA,NA,warmup/swan.jpg,bird\nbirds,some_college,english,male,NA,birds,NA,3,1566831278478,7,NA,This is a,3,These are both,NA,canary,warmup1
406,swan,NA,10,warmup/canary.jpg,swan,This is a,NA,1,birds,Patricia,canary,yes,Please label the pictures below.,NA,NA,21,NA,NA,warmup/swan.jpg,bird\nbirds,some_college,english,male,NA,birds,NA,3,1566831278478,8,NA,This is a,3,These are both,NA,canary,warmup1
406,swan,NA,10,warmup/canary.jpg,swan,This is a,NA,1,birds,Patricia,canary,yes,Please label the pictures below.,NA,NA,21,NA,NA,warmup/swan.jpg,bird\nbirds,some_college,english,male,NA,birds,NA,3,1566831278478,9,NA,This is a,3,These are both,NA,canary,warmup1
406,swan,NA,10,warmup/canary.jpg,swan,This is a,NA,1,birds,Patricia,canary,yes,Please label the pictures below.,NA,NA,21,NA,NA,warmup/swan.jpg,bird\nbirds,some_college,english,male,NA,birds,NA,3,1566831278478,10,NA,This is a,3,These are both,NA,canary,warmup1
406,swan,NA,10,warmup/canary.jpg,swan,This is a,NA,1,birds,Patricia,canary,yes,Please label the pictures below.,NA,NA,21,NA,NA,warmup/swan.jpg,bird\nbirds,some_college,english,male,NA,birds,NA,3,1566831278478,11,NA,This is a,3,These are both,NA,canary,warmup1
406,swan,NA,10,warmup/canary.jpg,swan,This is a,NA,1,birds,Patricia,canary,yes,Please label the pictures below.,NA,NA,21,NA,NA,warmup/swan.jpg,birds,some_college,english,male,NA,birds,NA,3,1566831278478,12,NA,This is a,3,These are both,NA,canary,warmup1
406,NA,images/bird-parade2.png,10,NA,NA,That's a small,NA,1,birds,Patricia,NA,yes,This one is also in the parade.,prenominal,You say to your friend:,21,bird,NA,NA,NA,some_college,english,male,NA,NA,You see a parade of animals.,1,1566831278478,NA,images/hummingbird.png,NA,3,NA,small,NA,main1
406,NA,images/fish-parade2.png,10,NA,NA,That's a big,NA,1,fish,Patricia,NA,yes,This one is also in the parade.,prenominal,You say to your friend:,21,fish,NA,NA,NA,some_college,english,male,NA,NA,You see a parade of animals.,2,1566831278478,NA,images/tuna.png,NA,3,NA,big,NA,main1
406,NA,images/bird-parade3.png,10,NA,NA,That's a big,NA,1,birds,Patricia,NA,yes,This one is also in the parade.,prenominal,You say to your friend:,21,bird,NA,NA,NA,some_college,english,male,NA,NA,You see a parade of animals.,3,1566831278478,NA,images/swan.png,NA,3,NA,big,NA,main1
406,duck,NA,10,warmup/sparrow.jpg,goose,This is a,NA,1,birds,Patricia,sparrow,yes,Please label the pictures below.,NA,NA,21,NA,NA,warmup/goose.png,birds,some_college,english,male,NA,birds,NA,1,1566831278478,1,NA,This is a,3,These are both,NA,bird,warmup2
406,goose,NA,10,warmup/sparrow.jpg,goose,This is a,NA,1,birds,Patricia,sparrow,yes,Please label the pictures below.,NA,NA,21,NA,NA,warmup/goose.png,birds,some_college,english,male,NA,birds,NA,1,1566831278478,2,NA,This is a,3,These are both,NA,sparrow,warmup2
406,redwood,NA,10,warmup/bonsai.jpg,redwood|sequoia,This is a,NA,1,trees,Patricia,bonsai,yes,Please label the pictures below.,NA,NA,21,NA,NA,warmup/sequoia.jpg,trees,some_college,english,male,NA,trees,NA,2,1566831278478,1,NA,This is a,3,These are both,NA,dfvsdfsdf,warmup2
406,redwood,NA,10,warmup/bonsai.jpg,redwood|sequoia,This is a,NA,1,trees,Patricia,bonsai,yes,Please label the pictures below.,NA,NA,21,NA,NA,warmup/sequoia.jpg,trees,some_college,english,male,NA,trees,NA,2,1566831278478,2,NA,This is a,3,These are both,NA,bonsai,warmup2
406,dandelion,NA,10,warmup/sunflower.png,dandelion,This is a,NA,1,flowers,Patricia,sunflower,yes,Please label the pictures below.,NA,NA,21,NA,NA,warmup/dandelion.jpg,flowers,some_college,english,male,NA,flowers,NA,3,1566831278478,1,NA,This is a,3,These are both,NA,sunflower,warmup2
406,NA,images/tree-parade.png,10,NA,NA,That's a big,NA,1,trees,Patricia,NA,yes,This one is also in the landscape.,prenominal,You say to your friend:,21,tree,NA,NA,NA,some_college,english,male,NA,NA,You see the following items in a landscape.,1,1566831278478,NA,images/sequoia.png,NA,3,NA,big,NA,main2
406,NA,images/bird-parade.png,10,NA,NA,That's a small,NA,1,birds,Patricia,NA,yes,This one is also in the parade.,prenominal,You say to your friend:,21,bird,NA,NA,NA,some_college,english,male,NA,NA,You see a parade of animals.,2,1566831278478,NA,images/sparrow.png,NA,3,NA,small,NA,main2
406,NA,images/flower-parade2.png,10,NA,NA,That's a small,NA,1,flowers,Patricia,NA,yes,This one is also in the collection.,prenominal,You say to your friend:,21,plant,NA,NA,NA,some_college,english,male,NA,NA,You see a collection of plants.,3,1566831278478,NA,images/dandelion.png,NA,3,NA,small,NA,main2
405,pug,NA,10,warmup/great-dane.jpg,pug,This is a,no,2,dogs,Patricia,great dane,yes,Please label the pictures below.,NA,NA,29,NA,thanks!,warmup/pug.jpg,dogs,higher_degree,english,female,NA,dogs,NA,1,1566831464392,1,NA,This is a,1,These are both,NA,great dane,warmup1
405,swan,NA,10,warmup/canary.jpg,swan,This is a,no,2,birds,Patricia,canary,yes,Please label the pictures below.,NA,NA,29,NA,thanks!,warmup/swan.jpg,birds,higher_degree,english,female,NA,birds,NA,2,1566831464392,1,NA,This is a,1,These are both,NA,finch,warmup1
405,swan,NA,10,warmup/canary.jpg,swan,This is a,no,2,birds,Patricia,canary,yes,Please label the pictures below.,NA,NA,29,NA,thanks!,warmup/swan.jpg,birds,higher_degree,english,female,NA,birds,NA,2,1566831464392,2,NA,This is a,1,These are both,NA,canary,warmup1
405,dandelion,NA,10,warmup/sunflower.png,dandelion,This is a,no,2,flowers,Patricia,sunflower,yes,Please label the pictures below.,NA,NA,29,NA,thanks!,warmup/dandelion.jpg,flowers,higher_degree,english,female,NA,flowers,NA,3,1566831464392,1,NA,This is a,1,These are both,NA,sunflower,warmup1
405,NA,images/flower-parade2.png,10,NA,NA,That's a small,no,2,flowers,Patricia,NA,yes,This one is also in the collection.,prenominal,You say to your friend:,29,flower,thanks!,NA,NA,higher_degree,english,female,NA,NA,You see a collection of plants.,1,1566831464392,NA,images/dandelion.png,NA,1,NA,small,NA,main1
405,NA,images/dog-parade2.png,10,NA,NA,That's a small,no,2,dogs,Patricia,NA,yes,This one is also in the parade.,prenominal,You say to your friend:,29,dog,thanks!,NA,NA,higher_degree,english,female,NA,NA,You see a parade of animals.,2,1566831464392,NA,images/pug.png,NA,1,NA,small,NA,main1
405,NA,images/bird-parade3.png,10,NA,NA,That's a big,no,2,birds,Patricia,NA,yes,This one is also in the parade.,prenominal,You say to your friend:,29,swan,thanks!,NA,NA,higher_degree,english,female,NA,NA,You see a parade of animals.,3,1566831464392,NA,images/swan.png,NA,1,NA,big,NA,main1
405,swordfish,NA,10,warmup/goldfish.png,swordfish,This is a,no,2,fish,Patricia,goldfish,yes,Please label the pictures below.,NA,NA,29,NA,thanks!,warmup/swordfish.jpg,fish,higher_degree,english,female,NA,fish,NA,1,1566831464392,1,NA,This is a,1,These are both,NA,goldfish,warmup2
405,tuna,NA,10,warmup/clownfish.jpg,tuna,This is a,no,2,fish,Patricia,clownfish,yes,Please label the pictures below.,NA,NA,29,NA,thanks!,warmup/tuna.jpg,fish,higher_degree,english,female,NA,fish,NA,2,1566831464392,1,NA,This is a,1,These are both,NA,clownfish,warmup2
405,goose,NA,10,warmup/sparrow.jpg,goose,This is a,no,2,birds,Patricia,sparrow,yes,Please label the pictures below.,NA,NA,29,NA,thanks!,warmup/goose.png,birds,higher_degree,english,female,NA,birds,NA,3,1566831464392,1,NA,This is a,1,These are both,NA,finch,warmup2
405,goose,NA,10,warmup/sparrow.jpg,goose,This is a,no,2,birds,Patricia,sparrow,yes,Please label the pictures below.,NA,NA,29,NA,thanks!,warmup/goose.png,birds,higher_degree,english,female,NA,birds,NA,3,1566831464392,2,NA,This is a,1,These are both,NA,sparrow,warmup2
405,NA,images/fish-parade2.png,10,NA,NA,That's a big,no,2,fish,Patricia,NA,yes,This one is also in the parade.,prenominal,You say to your friend:,29,fish,thanks!,NA,NA,higher_degree,english,female,NA,NA,You see a parade of animals.,1,1566831464392,NA,images/tuna.png,NA,1,NA,big,NA,main2
405,NA,images/fish-parade.png,10,NA,NA,That's a big,no,2,fish,Patricia,NA,yes,This one is also in the parade.,prenominal,You say to your friend:,29,fish,thanks!,NA,NA,higher_degree,english,female,NA,NA,You see a parade of animals.,2,1566831464392,NA,images/swordfish.png,NA,1,NA,big,NA,main2
405,NA,images/bird-parade.png,10,NA,NA,That's a small,no,2,birds,Patricia,NA,yes,This one is also in the parade.,prenominal,You say to your friend:,29,sparrow,thanks!,NA,NA,higher_degree,english,female,NA,NA,You see a parade of animals.,3,1566831464392,NA,images/sparrow.png,NA,1,NA,small,NA,main2
396,hummingbird,NA,10,warmup/eagle.jpg,hummingbird,This is a,Nope,1,birds,linda,eagle,NA,Please label the pictures below.,NA,NA,28,NA,"I'm pretty sure the picture of  a ""swordfish"" you have is actually a marlin.",warmup/colibri.jpg,birds,graduated_college,English,male,NA,birds,NA,1,1566831074613,1,NA,This is an,1.25,These are both,NA,eagle,warmup1
396,marigold,NA,10,warmup/sunflower.png,dandelion,This is a,Nope,1,flowers,linda,sunflower,NA,Please label the pictures below.,NA,NA,28,NA,"I'm pretty sure the picture of  a ""swordfish"" you have is actually a marlin.",warmup/dandelion.jpg,flowers,graduated_college,English,male,NA,flowers,NA,2,1566831074613,1,NA,This is a,1.25,These are both,NA,sunflower,warmup1
396,dandelion,NA,10,warmup/sunflower.png,dandelion,This is a,Nope,1,flowers,linda,sunflower,NA,Please label the pictures below.,NA,NA,28,NA,"I'm pretty sure the picture of  a ""swordfish"" you have is actually a marlin.",warmup/dandelion.jpg,flowers,graduated_college,English,male,NA,flowers,NA,2,1566831074613,2,NA,This is a,1.25,These are both,NA,sunflower,warmup1
396,tuna,NA,10,warmup/clownfish.jpg,tuna,This is a,Nope,1,fish,linda,clownfish,NA,Please label the pictures below.,NA,NA,28,NA,"I'm pretty sure the picture of  a ""swordfish"" you have is actually a marlin.",warmup/tuna.jpg,fish,graduated_college,English,male,NA,fish,NA,3,1566831074613,1,NA,This is a,1.25,These are both,NA,clownfish,warmup1
396,NA,images/fish-parade2.png,10,NA,NA,That's a small,Nope,1,fish,linda,NA,NA,This one is also in the parade.,prenominal,You say to your friend:,28,fish,"I'm pretty sure the picture of  a ""swordfish"" you have is actually a marlin.",NA,NA,graduated_college,English,male,NA,NA,You see a parade of animals.,1,1566831074613,NA,images/clownfish.png,NA,1.25,NA,small,NA,main1
396,NA,images/flower-parade2.png,10,NA,NA,That's a small,Nope,1,flowers,linda,NA,NA,This one is also in the collection.,prenominal,You say to your friend:,28,flower,"I'm pretty sure the picture of  a ""swordfish"" you have is actually a marlin.",NA,NA,graduated_college,English,male,NA,NA,You see a collection of plants.,2,1566831074613,NA,images/dandelion.png,NA,1.25,NA,small,NA,main1
396,NA,images/bird-parade2.png,10,NA,NA,That's a big,Nope,1,birds,linda,NA,NA,This one is also in the parade.,prenominal,You say to your friend:,28,eagle,"I'm pretty sure the picture of  a ""swordfish"" you have is actually a marlin.",NA,NA,graduated_college,English,male,NA,NA,You see a parade of animals.,3,1566831074613,NA,images/eagle.png,NA,1.25,NA,big,NA,main1
396,peony,NA,10,warmup/peony.png,daisy,This is a,Nope,1,flowers,linda,peony,NA,Please label the pictures below.,NA,NA,28,NA,"I'm pretty sure the picture of  a ""swordfish"" you have is actually a marlin.",warmup/daisy.png,flower,graduated_college,English,male,NA,flowers,NA,1,1566831074613,1,NA,This is a,1.25,These are both,NA,rose,warmup2
396,daisy,NA,10,warmup/peony.png,daisy,This is a,Nope,1,flowers,linda,peony,NA,Please label the pictures below.,NA,NA,28,NA,"I'm pretty sure the picture of  a ""swordfish"" you have is actually a marlin.",warmup/daisy.png,flowers,graduated_college,English,male,NA,flowers,NA,1,1566831074613,2,NA,This is a,1.25,These are both,NA,peony,warmup2
396,marlin,NA,10,warmup/goldfish.png,swordfish,This is a,Nope,1,fish,linda,goldfish,NA,Please label the pictures below.,NA,NA,28,NA,"I'm pretty sure the picture of  a ""swordfish"" you have is actually a marlin.",warmup/swordfish.jpg,fish,graduated_college,English,male,NA,fish,NA,2,1566831074613,1,NA,This is a,1.25,These are both,NA,goldfish,warmup2
396,swordfish,NA,10,warmup/goldfish.png,swordfish,This is a,Nope,1,fish,linda,goldfish,NA,Please label the pictures below.,NA,NA,28,NA,"I'm pretty sure the picture of  a ""swordfish"" you have is actually a marlin.",warmup/swordfish.jpg,fish,graduated_college,English,male,NA,fish,NA,2,1566831074613,2,NA,This is a,1.25,These are both,NA,goldfish,warmup2
396,pug,NA,10,warmup/great-dane.jpg,pug,This is a,Nope,1,dogs,linda,great dane,NA,Please label the pictures below.,NA,NA,28,NA,"I'm pretty sure the picture of  a ""swordfish"" you have is actually a marlin.",warmup/pug.jpg,dogs,graduated_college,English,male,NA,dogs,NA,3,1566831074613,1,NA,This is a,1.25,These are both,NA,dog,warmup2
396,pug,NA,10,warmup/great-dane.jpg,pug,This is a,Nope,1,dogs,linda,great dane,NA,Please label the pictures below.,NA,NA,28,NA,"I'm pretty sure the picture of  a ""swordfish"" you have is actually a marlin.",warmup/pug.jpg,dogs,graduated_college,English,male,NA,dogs,NA,3,1566831074613,2,NA,This is a,1.25,These are both,NA,great dane,warmup2
396,NA,images/flower-parade.png,10,NA,NA,That's a big,Nope,1,flowers,linda,NA,NA,This one is also in the collection.,prenominal,You say to your friend:,28,flower,"I'm pretty sure the picture of  a ""swordfish"" you have is actually a marlin.",NA,NA,graduated_college,English,male,NA,NA,You see a collection of plants.,1,1566831074613,NA,images/peony.png,NA,1.25,NA,big,NA,main2
396,NA,images/fish-parade.png,10,NA,NA,That's a small,Nope,1,fish,linda,NA,NA,This one is also in the parade.,prenominal,You say to your friend:,28,fish,"I'm pretty sure the picture of  a ""swordfish"" you have is actually a marlin.",NA,NA,graduated_college,English,male,NA,NA,You see a parade of animals.,2,1566831074613,NA,images/goldfish.png,NA,1.25,NA,small,NA,main2
396,NA,images/dog-parade2.png,10,NA,NA,That's a big,Nope,1,dogs,linda,NA,NA,This one is also in the parade.,prenominal,You say to your friend:,28,dog,"I'm pretty sure the picture of  a ""swordfish"" you have is actually a marlin.",NA,NA,graduated_college,English,male,NA,NA,You see a parade of animals.,3,1566831074613,NA,images/great-dane.png,NA,1.25,NA,big,NA,main2
395,tree,NA,10,warmup/bonsai.jpg,redwood|sequoia,This is a,NA,1,trees,sarah,bonsai,confused,Please label the pictures below.,NA,NA,38,NA,NA,warmup/sequoia.jpg,trees,some_college,english,male,NA,trees,NA,1,1566830848408,1,NA,This is a,2,These are both,NA,bonsai,warmup1
395,tree,NA,10,warmup/bonsai.jpg,redwood|sequoia,This is a,NA,1,trees,sarah,bonsai,confused,Please label the pictures below.,NA,NA,38,NA,NA,warmup/sequoia.jpg,tree,some_college,english,male,NA,trees,NA,1,1566830848408,2,NA,This is a,2,These are both,NA,bonsai,warmup1
395,trees,NA,10,warmup/bonsai.jpg,redwood|sequoia,This is a,NA,1,trees,sarah,bonsai,confused,Please label the pictures below.,NA,NA,38,NA,NA,warmup/sequoia.jpg,tree,some_college,english,male,NA,trees,NA,1,1566830848408,3,NA,This is a,2,These are both,NA,bonsai,warmup1
395,trees,NA,10,warmup/bonsai.jpg,redwood|sequoia,This is a,NA,1,trees,sarah,bonsai,confused,Please label the pictures below.,NA,NA,38,NA,NA,warmup/sequoia.jpg,tree,some_college,english,male,NA,trees,NA,1,1566830848408,4,NA,This is a,2,These are both,NA,bonsai,warmup1
395,trees,NA,10,warmup/bonsai.jpg,redwood|sequoia,This is a,NA,1,trees,sarah,bonsai,confused,Please label the pictures below.,NA,NA,38,NA,NA,warmup/sequoia.jpg,tree,some_college,english,male,NA,trees,NA,1,1566830848408,5,NA,This is a,2,These are both,NA,bonsai,warmup1
395,trees,NA,10,warmup/bonsai.jpg,redwood|sequoia,This is a,NA,1,trees,sarah,bonsai,confused,Please label the pictures below.,NA,NA,38,NA,NA,warmup/sequoia.jpg,trees,some_college,english,male,NA,trees,NA,1,1566830848408,6,NA,This is a,2,These are both,NA,bonsai,warmup1
395,trees,NA,10,warmup/bonsai.jpg,redwood|sequoia,This is a,NA,1,trees,sarah,bonsai,confused,Please label the pictures below.,NA,NA,38,NA,NA,warmup/sequoia.jpg,trees,some_college,english,male,NA,trees,NA,1,1566830848408,7,NA,This is a,2,These are both,NA,bonsai,warmup1
395,trees,NA,10,warmup/bonsai.jpg,redwood|sequoia,This is a,NA,1,trees,sarah,bonsai,confused,Please label the pictures below.,NA,NA,38,NA,NA,warmup/sequoia.jpg,trees,some_college,english,male,NA,trees,NA,1,1566830848408,8,NA,This is a,2,These are both,NA,trees,warmup1
395,redwood,NA,10,warmup/bonsai.jpg,redwood|sequoia,This is a,NA,1,trees,sarah,bonsai,confused,Please label the pictures below.,NA,NA,38,NA,NA,warmup/sequoia.jpg,trees,some_college,english,male,NA,trees,NA,1,1566830848408,9,NA,This is a,2,These are both,NA,bonsai,warmup1
395,chiquaqua,NA,10,warmup/doberman.png,chihuahua,This is a,NA,1,dogs,sarah,doberman,confused,Please label the pictures below.,NA,NA,38,NA,NA,warmup/chihuahua.jpg,dogs,some_college,english,male,NA,dogs,NA,2,1566830848408,1,NA,This is a,2,These are both,NA,dodderman,warmup1
395,chihuahua,NA,10,warmup/doberman.png,chihuahua,This is a,NA,1,dogs,sarah,doberman,confused,Please label the pictures below.,NA,NA,38,NA,NA,warmup/chihuahua.jpg,dogs,some_college,english,male,NA,dogs,NA,2,1566830848408,2,NA,This is a,2,These are both,NA,doberman,warmup1
395,hummingbird,NA,10,warmup/eagle.jpg,hummingbird,This is a,NA,1,birds,sarah,eagle,confused,Please label the pictures below.,NA,NA,38,NA,NA,warmup/colibri.jpg,bird,some_college,english,male,NA,birds,NA,3,1566830848408,1,NA,This is an,2,These are both,NA,eagle,warmup1
395,hummingbird,NA,10,warmup/eagle.jpg,hummingbird,This is a,NA,1,birds,sarah,eagle,confused,Please label the pictures below.,NA,NA,38,NA,NA,warmup/colibri.jpg,birds,some_college,english,male,NA,birds,NA,3,1566830848408,2,NA,This is an,2,These are both,NA,eagle,warmup1
395,NA,images/bird-parade2.png,10,NA,NA,That's a big,NA,1,birds,sarah,NA,confused,This one is also in the parade.,prenominal,You say to your friend:,38,eagle,NA,NA,NA,some_college,english,male,NA,NA,You see a parade of animals.,1,1566830848408,NA,images/eagle.png,NA,2,NA,big,NA,main1
395,NA,images/tree-parade.png,10,NA,NA,That's a small,NA,1,trees,sarah,NA,confused,This one is also in the landscape.,prenominal,You say to your friend:,38,tree,NA,NA,NA,some_college,english,male,NA,NA,You see the following items in a landscape.,2,1566830848408,NA,images/bonsai.png,NA,2,NA,small,NA,main1
395,NA,images/dog-parade.png,10,NA,NA,That's a small,NA,1,dogs,sarah,NA,confused,This one is also in the parade.,prenominal,You say to your friend:,38,dog,NA,NA,NA,some_college,english,male,NA,NA,You see a parade of animals.,3,1566830848408,NA,images/chihuahua.png,NA,2,NA,small,NA,main1
395,pug,NA,10,warmup/great-dane.jpg,pug,This is a,NA,1,dogs,sarah,great dane,confused,Please label the pictures below.,NA,NA,38,NA,NA,warmup/pug.jpg,dogs,some_college,english,male,NA,dogs,NA,1,1566830848408,1,NA,This is a,2,These are both,NA,hound,warmup2
395,pug,NA,10,warmup/great-dane.jpg,pug,This is a,NA,1,dogs,sarah,great dane,confused,Please label the pictures below.,NA,NA,38,NA,NA,warmup/pug.jpg,dogs,some_college,english,male,NA,dogs,NA,1,1566830848408,2,NA,This is a,2,These are both,NA,great dane,warmup2
395,weed,NA,10,warmup/sunflower.png,dandelion,This is a,NA,1,flowers,sarah,sunflower,confused,Please label the pictures below.,NA,NA,38,NA,NA,warmup/dandelion.jpg,flowers,some_college,english,male,NA,flowers,NA,2,1566830848408,1,NA,This is a,2,These are both,NA,sunflower,warmup2
395,dandelion,NA,10,warmup/sunflower.png,dandelion,This is a,NA,1,flowers,sarah,sunflower,confused,Please label the pictures below.,NA,NA,38,NA,NA,warmup/dandelion.jpg,flowers,some_college,english,male,NA,flowers,NA,2,1566830848408,2,NA,This is a,2,These are both,NA,sunflower,warmup2
395,goose,NA,10,warmup/sparrow.jpg,goose,This is a,NA,1,birds,sarah,sparrow,confused,Please label the pictures below.,NA,NA,38,NA,NA,warmup/goose.png,birds,some_college,english,male,NA,birds,NA,3,1566830848408,1,NA,This is a,2,These are both,NA,sparrow,warmup2
395,NA,images/dog-parade2.png,10,NA,NA,That's a big,NA,1,dogs,sarah,NA,confused,This one is also in the parade.,prenominal,You say to your friend:,38,great dane,NA,NA,NA,some_college,english,male,NA,NA,You see a parade of animals.,1,1566830848408,NA,images/great-dane.png,NA,2,NA,big,NA,main2
395,NA,images/bird-parade.png,10,NA,NA,That's a small,NA,1,birds,sarah,NA,confused,This one is also in the parade.,prenominal,You say to your friend:,38,bird,NA,NA,NA,some_college,english,male,NA,NA,You see a parade of animals.,2,1566830848408,NA,images/sparrow.png,NA,2,NA,small,NA,main2
395,NA,images/flower-parade2.png,10,NA,NA,That's a big,NA,1,flowers,sarah,NA,confused,This one is also in the collection.,prenominal,You say to your friend:,38,sunflower,NA,NA,NA,some_college,english,male,NA,NA,You see a collection of plants.,3,1566830848408,NA,images/sunflower.png,NA,2,NA,big,NA,main2
394,tree,NA,10,warmup/bonsai.jpg,redwood|sequoia,This is a,No.,1,trees,jessica,bonsai,yes,Please label the pictures below.,NA,NA,37,NA,n/a,warmup/sequoia.jpg,trees,some_college,English,male,NA,trees,NA,1,1566831084529,1,NA,This is a,1,These are both,NA,tree,warmup1
394,tree,NA,10,warmup/bonsai.jpg,redwood|sequoia,This is a,No.,1,trees,jessica,bonsai,yes,Please label the pictures below.,NA,NA,37,NA,n/a,warmup/sequoia.jpg,trees,some_college,English,male,NA,trees,NA,1,1566831084529,2,NA,This is a,1,These are both,NA,tree,warmup1
394,redwood,NA,10,warmup/bonsai.jpg,redwood|sequoia,This is a,No.,1,trees,jessica,bonsai,yes,Please label the pictures below.,NA,NA,37,NA,n/a,warmup/sequoia.jpg,trees,some_college,English,male,NA,trees,NA,1,1566831084529,3,NA,This is a,1,These are both,NA,bonsai,warmup1
394,goose,NA,10,warmup/sparrow.jpg,goose,This is a,No.,1,birds,jessica,sparrow,yes,Please label the pictures below.,NA,NA,37,NA,n/a,warmup/goose.png,birds,some_college,English,male,NA,birds,NA,2,1566831084529,1,NA,This is a,1,These are both,NA,starling,warmup1
394,goose,NA,10,warmup/sparrow.jpg,goose,This is a,No.,1,birds,jessica,sparrow,yes,Please label the pictures below.,NA,NA,37,NA,n/a,warmup/goose.png,birds,some_college,English,male,NA,birds,NA,2,1566831084529,2,NA,This is a,1,These are both,NA,sparrow,warmup1
394,swan,NA,10,warmup/canary.jpg,swan,This is a,No.,1,birds,jessica,canary,yes,Please label the pictures below.,NA,NA,37,NA,n/a,warmup/swan.jpg,birds,some_college,English,male,NA,birds,NA,3,1566831084529,1,NA,This is a,1,These are both,NA,chirp,warmup1
394,swan,NA,10,warmup/canary.jpg,swan,This is a,No.,1,birds,jessica,canary,yes,Please label the pictures below.,NA,NA,37,NA,n/a,warmup/swan.jpg,birds,some_college,English,male,NA,birds,NA,3,1566831084529,2,NA,This is a,1,These are both,NA,canary,warmup1
394,NA,images/bird-parade.png,10,NA,NA,That's a big,No.,1,birds,jessica,NA,yes,This one is also in the parade.,prenominal,You say to your friend:,37,goose,n/a,NA,NA,some_college,English,male,NA,NA,You see a parade of animals.,1,1566831084529,NA,images/goose.png,NA,1,NA,big,NA,main1
394,NA,images/tree-parade.png,10,NA,NA,That's a big,No.,1,trees,jessica,NA,yes,This one is also in the landscape.,prenominal,You say to your friend:,37,redwood,n/a,NA,NA,some_college,English,male,NA,NA,You see the following items in a landscape.,2,1566831084529,NA,images/sequoia.png,NA,1,NA,big,NA,main1
394,NA,images/bird-parade3.png,10,NA,NA,That's a small,No.,1,birds,jessica,NA,yes,This one is also in the parade.,prenominal,You say to your friend:,37,canary,n/a,NA,NA,some_college,English,male,NA,NA,You see a parade of animals.,3,1566831084529,NA,images/canary.png,NA,1,NA,small,NA,main1
394,Dandelion,NA,10,warmup/peony.png,daisy,This is a,No.,1,flowers,jessica,peony,yes,Please label the pictures below.,NA,NA,37,NA,n/a,warmup/daisy.png,flowers,some_college,English,male,NA,flowers,NA,1,1566831084529,1,NA,This is a,1,These are both,NA,rose,warmup2
394,daisy,NA,10,warmup/peony.png,daisy,This is a,No.,1,flowers,jessica,peony,yes,Please label the pictures below.,NA,NA,37,NA,n/a,warmup/daisy.png,flowers,some_college,English,male,NA,flowers,NA,1,1566831084529,2,NA,This is a,1,These are both,NA,peony,warmup2
394,dandelion,NA,10,warmup/sunflower.png,dandelion,This is a,No.,1,flowers,jessica,sunflower,yes,Please label the pictures below.,NA,NA,37,NA,n/a,warmup/dandelion.jpg,plants,some_college,English,male,NA,flowers,NA,2,1566831084529,1,NA,This is a,1,These are both,NA,sun flower,warmup2
394,dandelion,NA,10,warmup/sunflower.png,dandelion,This is a,No.,1,flowers,jessica,sunflower,yes,Please label the pictures below.,NA,NA,37,NA,n/a,warmup/dandelion.jpg,flowers,some_college,English,male,NA,flowers,NA,2,1566831084529,2,NA,This is a,1,These are both,NA,sunflower,warmup2
394,tuna,NA,10,warmup/clownfish.jpg,tuna,This is a,No.,1,fish,jessica,clownfish,yes,Please label the pictures below.,NA,NA,37,NA,n/a,warmup/tuna.jpg,fish,some_college,English,male,NA,fish,NA,3,1566831084529,1,NA,This is a,1,These are both,NA,clownfish,warmup2
394,NA,images/fish-parade2.png,10,NA,NA,That's a small,No.,1,fish,jessica,NA,yes,This one is also in the parade.,prenominal,You say to your friend:,37,clownfish,n/a,NA,NA,some_college,English,male,NA,NA,You see a parade of animals.,1,1566831084529,NA,images/clownfish.png,NA,1,NA,small,NA,main2
394,NA,images/flower-parade.png,10,NA,NA,That's a big,No.,1,flowers,jessica,NA,yes,This one is also in the collection.,prenominal,You say to your friend:,37,peona,n/a,NA,NA,some_college,English,male,NA,NA,You see a collection of plants.,2,1566831084529,NA,images/peony.png,NA,1,NA,big,NA,main2
394,NA,images/flower-parade2.png,10,NA,NA,That's a small,No.,1,flowers,jessica,NA,yes,This one is also in the collection.,prenominal,You say to your friend:,37,dandelion,n/a,NA,NA,some_college,English,male,NA,NA,You see a collection of plants.,3,1566831084529,NA,images/dandelion.png,NA,1,NA,small,NA,main2
393,hummingbird,NA,10,warmup/eagle.jpg,hummingbird,This is a,No,1,birds,jennifer,eagle,yes,Please label the pictures below.,NA,NA,38,NA,NA,warmup/colibri.jpg,bird,some_college,English,male,NA,birds,NA,1,1566831214057,1,NA,This is an,1,These are both,NA,eagle,warmup1
393,hummingbird,NA,10,warmup/eagle.jpg,hummingbird,This is a,No,1,birds,jennifer,eagle,yes,Please label the pictures below.,NA,NA,38,NA,NA,warmup/colibri.jpg,bird,some_college,English,male,NA,birds,NA,1,1566831214057,2,NA,This is an,1,These are both,NA,eagle,warmup1
393,hummingbird,NA,10,warmup/eagle.jpg,hummingbird,This is a,No,1,birds,jennifer,eagle,yes,Please label the pictures below.,NA,NA,38,NA,NA,warmup/colibri.jpg,birds,some_college,English,male,NA,birds,NA,1,1566831214057,3,NA,This is an,1,These are both,NA,eagle,warmup1
393,chihuahua,NA,10,warmup/doberman.png,chihuahua,This is a,No,1,dogs,jennifer,doberman,yes,Please label the pictures below.,NA,NA,38,NA,NA,warmup/chihuahua.jpg,dogs,some_college,English,male,NA,dogs,NA,2,1566831214057,1,NA,This is a,1,These are both,NA,doberman,warmup1
393,swordfish,NA,10,warmup/goldfish.png,swordfish,This is a,No,1,fish,jennifer,goldfish,yes,Please label the pictures below.,NA,NA,38,NA,NA,warmup/swordfish.jpg,fish,some_college,English,male,NA,fish,NA,3,1566831214057,1,NA,This is a,1,These are both,NA,goldfish,warmup1
393,NA,images/bird-parade2.png,10,NA,NA,That's a small,No,1,birds,jennifer,NA,yes,This one is also in the parade.,prenominal,You say to your friend:,38,bird,NA,NA,NA,some_college,English,male,NA,NA,You see a parade of animals.,1,1566831214057,NA,images/hummingbird.png,NA,1,NA,small,NA,main1
393,NA,images/fish-parade.png,10,NA,NA,That's a big,No,1,fish,jennifer,NA,yes,This one is also in the parade.,prenominal,You say to your friend:,38,fish,NA,NA,NA,some_college,English,male,NA,NA,You see a parade of animals.,2,1566831214057,NA,images/swordfish.png,NA,1,NA,big,NA,main1
393,NA,images/dog-parade.png,10,NA,NA,That's a small,No,1,dogs,jennifer,NA,yes,This one is also in the parade.,prenominal,You say to your friend:,38,chihuahua,NA,NA,NA,some_college,English,male,NA,NA,You see a parade of animals.,3,1566831214057,NA,images/chihuahua.png,NA,1,NA,small,NA,main1
393,fish,NA,10,warmup/clownfish.jpg,tuna,This is a,No,1,fish,jennifer,clownfish,yes,Please label the pictures below.,NA,NA,38,NA,NA,warmup/tuna.jpg,fish,some_college,English,male,NA,fish,NA,1,1566831214057,1,NA,This is a,1,These are both,NA,goldfish,warmup2
393,tuna,NA,10,warmup/clownfish.jpg,tuna,This is a,No,1,fish,jennifer,clownfish,yes,Please label the pictures below.,NA,NA,38,NA,NA,warmup/tuna.jpg,fish,some_college,English,male,NA,fish,NA,1,1566831214057,2,NA,This is a,1,These are both,NA,clownfish,warmup2
393,pug,NA,10,warmup/great-dane.jpg,pug,This is a,No,1,dogs,jennifer,great dane,yes,Please label the pictures below.,NA,NA,38,NA,NA,warmup/pug.jpg,dogs,some_college,English,male,NA,dogs,NA,2,1566831214057,1,NA,This is a,1,These are both,NA,dog,warmup2
393,pug,NA,10,warmup/great-dane.jpg,pug,This is a,No,1,dogs,jennifer,great dane,yes,Please label the pictures below.,NA,NA,38,NA,NA,warmup/pug.jpg,dogs,some_college,English,male,NA,dogs,NA,2,1566831214057,2,NA,This is a,1,These are both,NA,great dane,warmup2
393,swan,NA,10,warmup/canary.jpg,swan,This is a,No,1,birds,jennifer,canary,yes,Please label the pictures below.,NA,NA,38,NA,NA,warmup/swan.jpg,birds,some_college,English,male,NA,birds,NA,3,1566831214057,1,NA,This is a,1,These are both,NA,bird,warmup2
393,swan,NA,10,warmup/canary.jpg,swan,This is a,No,1,birds,jennifer,canary,yes,Please label the pictures below.,NA,NA,38,NA,NA,warmup/swan.jpg,birds,some_college,English,male,NA,birds,NA,3,1566831214057,2,NA,This is a,1,These are both,NA,canary,warmup2
393,NA,images/bird-parade3.png,10,NA,NA,That's a big,No,1,birds,jennifer,NA,yes,This one is also in the parade.,prenominal,You say to your friend:,38,Swan,NA,NA,NA,some_college,English,male,NA,NA,You see a parade of animals.,1,1566831214057,NA,images/swan.png,NA,1,NA,big,NA,main2
393,NA,images/dog-parade2.png,10,NA,NA,That's a small,No,1,dogs,jennifer,NA,yes,This one is also in the parade.,prenominal,You say to your friend:,38,pug,NA,NA,NA,some_college,English,male,NA,NA,You see a parade of animals.,2,1566831214057,NA,images/pug.png,NA,1,NA,small,NA,main2
393,NA,images/fish-parade2.png,10,NA,NA,That's a big,No,1,fish,jennifer,NA,yes,This one is also in the parade.,prenominal,You say to your friend:,38,tunafish,NA,NA,NA,some_college,English,male,NA,NA,You see a parade of animals.,3,1566831214057,NA,images/tuna.png,NA,1,NA,big,NA,main2
391,Swan,NA,10,warmup/canary.jpg,swan,This is a,No,0,birds,sarah,canary,NA,Please label the pictures below.,NA,NA,27,NA,"I don't quite understand correcting people's knowledge, or lack thereof of various flower and bird species. This seemed very odd. It's a small bird. I don't know a finch from a sparrow, and I'm not entirely sure why it matters.",warmup/swan.jpg,Birds,graduated_college,English,male,NA,birds,NA,1,1566830968858,1,NA,This is a,1,These are both,NA,Finch,warmup1
391,Swan,NA,10,warmup/canary.jpg,swan,This is a,No,0,birds,sarah,canary,NA,Please label the pictures below.,NA,NA,27,NA,"I don't quite understand correcting people's knowledge, or lack thereof of various flower and bird species. This seemed very odd. It's a small bird. I don't know a finch from a sparrow, and I'm not entirely sure why it matters.",warmup/swan.jpg,Birds,graduated_college,English,male,NA,birds,NA,1,1566830968858,2,NA,This is a,1,These are both,NA,Canary,warmup1
391,Pug,NA,10,warmup/great-dane.jpg,pug,This is a,No,0,dogs,sarah,great dane,NA,Please label the pictures below.,NA,NA,27,NA,"I don't quite understand correcting people's knowledge, or lack thereof of various flower and bird species. This seemed very odd. It's a small bird. I don't know a finch from a sparrow, and I'm not entirely sure why it matters.",warmup/pug.jpg,Dogs,graduated_college,English,male,NA,dogs,NA,2,1566830968858,1,NA,This is a,1,These are both,NA,Hound,warmup1
391,Pug,NA,10,warmup/great-dane.jpg,pug,This is a,No,0,dogs,sarah,great dane,NA,Please label the pictures below.,NA,NA,27,NA,"I don't quite understand correcting people's knowledge, or lack thereof of various flower and bird species. This seemed very odd. It's a small bird. I don't know a finch from a sparrow, and I'm not entirely sure why it matters.",warmup/pug.jpg,Dogs,graduated_college,English,male,NA,dogs,NA,2,1566830968858,2,NA,This is a,1,These are both,NA,great dane,warmup1
391,Dandelion,NA,10,warmup/sunflower.png,dandelion,This is a,No,0,flowers,sarah,sunflower,NA,Please label the pictures below.,NA,NA,27,NA,"I don't quite understand correcting people's knowledge, or lack thereof of various flower and bird species. This seemed very odd. It's a small bird. I don't know a finch from a sparrow, and I'm not entirely sure why it matters.",warmup/dandelion.jpg,Flowers,graduated_college,English,male,NA,flowers,NA,3,1566830968858,1,NA,This is a,1,These are both,NA,Sunflower,warmup1
391,NA,images/flower-parade2.png,10,NA,NA,That's a small,No,0,flowers,sarah,NA,NA,This one is also in the collection.,prenominal,You say to your friend:,27,Dandelion,"I don't quite understand correcting people's knowledge, or lack thereof of various flower and bird species. This seemed very odd. It's a small bird. I don't know a finch from a sparrow, and I'm not entirely sure why it matters.",NA,NA,graduated_college,English,male,NA,NA,You see a collection of plants.,1,1566830968858,NA,images/dandelion.png,NA,1,NA,small,NA,main1
391,NA,images/bird-parade3.png,10,NA,NA,That's a small,No,0,birds,sarah,NA,NA,This one is also in the parade.,prenominal,You say to your friend:,27,bird,"I don't quite understand correcting people's knowledge, or lack thereof of various flower and bird species. This seemed very odd. It's a small bird. I don't know a finch from a sparrow, and I'm not entirely sure why it matters.",NA,NA,graduated_college,English,male,NA,NA,You see a parade of animals.,2,1566830968858,NA,images/canary.png,NA,1,NA,small,NA,main1
391,NA,images/dog-parade2.png,10,NA,NA,That's a big,No,0,dogs,sarah,NA,NA,This one is also in the parade.,prenominal,You say to your friend:,27,dog,"I don't quite understand correcting people's knowledge, or lack thereof of various flower and bird species. This seemed very odd. It's a small bird. I don't know a finch from a sparrow, and I'm not entirely sure why it matters.",NA,NA,graduated_college,English,male,NA,NA,You see a parade of animals.,3,1566830968858,NA,images/great-dane.png,NA,1,NA,big,NA,main1
391,hummingbird,NA,10,warmup/eagle.jpg,hummingbird,This is a,No,0,birds,sarah,eagle,NA,Please label the pictures below.,NA,NA,27,NA,"I don't quite understand correcting people's knowledge, or lack thereof of various flower and bird species. This seemed very odd. It's a small bird. I don't know a finch from a sparrow, and I'm not entirely sure why it matters.",warmup/colibri.jpg,birds,graduated_college,English,male,NA,birds,NA,1,1566830968858,1,NA,This is an,1,These are both,NA,Bald Eagle,warmup2
391,hummingbird,NA,10,warmup/eagle.jpg,hummingbird,This is a,No,0,birds,sarah,eagle,NA,Please label the pictures below.,NA,NA,27,NA,"I don't quite understand correcting people's knowledge, or lack thereof of various flower and bird species. This seemed very odd. It's a small bird. I don't know a finch from a sparrow, and I'm not entirely sure why it matters.",warmup/colibri.jpg,birds,graduated_college,English,male,NA,birds,NA,1,1566830968858,2,NA,This is an,1,These are both,NA,eagle,warmup2
391,Goose,NA,10,warmup/sparrow.jpg,goose,This is a,No,0,birds,sarah,sparrow,NA,Please label the pictures below.,NA,NA,27,NA,"I don't quite understand correcting people's knowledge, or lack thereof of various flower and bird species. This seemed very odd. It's a small bird. I don't know a finch from a sparrow, and I'm not entirely sure why it matters.",warmup/goose.png,birds,graduated_college,English,male,NA,birds,NA,2,1566830968858,1,NA,This is a,1,These are both,NA,finch,warmup2
391,Goose,NA,10,warmup/sparrow.jpg,goose,This is a,No,0,birds,sarah,sparrow,NA,Please label the pictures below.,NA,NA,27,NA,"I don't quite understand correcting people's knowledge, or lack thereof of various flower and bird species. This seemed very odd. It's a small bird. I don't know a finch from a sparrow, and I'm not entirely sure why it matters.",warmup/goose.png,birds,graduated_college,English,male,NA,birds,NA,2,1566830968858,2,NA,This is a,1,These are both,NA,sparrow,warmup2
391,dandelion,NA,10,warmup/peony.png,daisy,This is a,No,0,flowers,sarah,peony,NA,Please label the pictures below.,NA,NA,27,NA,"I don't quite understand correcting people's knowledge, or lack thereof of various flower and bird species. This seemed very odd. It's a small bird. I don't know a finch from a sparrow, and I'm not entirely sure why it matters.",warmup/daisy.png,flowers,graduated_college,English,male,NA,flowers,NA,3,1566830968858,1,NA,This is a,1,These are both,NA,tulip,warmup2
