submission_id,response1,startDate,context_picture,experiment_id,picture2,correct1,question1,problems,enjoyment,hit_id,item,botresponse,assignment_id,correct2,understand,text,condition,sentence,age,response,comments,picture1,response3,education,worker_id,languages,sex,RT,correct3,context,trial_number,startTime,attempts,picture,question3,fairprice,question2,size,response2,trial_name
341,swordfish,Wed Aug 21 2019 14:55:05 GMT-0500 (CDT),NA,8,warmup/goldfish.png,swordfish,This is a ,no,1,3ZZAYRN1I6FJ5KHUN3YSSTTS1K6OTT,fish,susan,3S4AW7T80C6U5YX0LCMUGO9UECL4LV,goldfish,yes,Please label the pictures below.,NA,NA,65,NA,,warmup/swordfish.jpg,fish,graduated_college,A2BLQ1GVEHJR8T,English,female,NA,fish,NA,1,1566417305133,1,NA,This is a ,1.00,These are both,NA,goldfish,warmup1
341,tall tree,Wed Aug 21 2019 14:55:05 GMT-0500 (CDT),NA,8,warmup/bonsai.jpg,redwood|sequoia,This is a ,no,1,3ZZAYRN1I6FJ5KHUN3YSSTTS1K6OTT,trees,susan,3S4AW7T80C6U5YX0LCMUGO9UECL4LV,bonsai,yes,Please label the pictures below.,NA,NA,65,NA,,warmup/sequoia.jpg,trees,graduated_college,A2BLQ1GVEHJR8T,English,female,NA,trees,NA,2,1566417305133,1,NA,This is a ,1.00,These are both,NA,bonsai,warmup1
341,cedar,Wed Aug 21 2019 14:55:05 GMT-0500 (CDT),NA,8,warmup/bonsai.jpg,redwood|sequoia,This is a ,no,1,3ZZAYRN1I6FJ5KHUN3YSSTTS1K6OTT,trees,susan,3S4AW7T80C6U5YX0LCMUGO9UECL4LV,bonsai,yes,Please label the pictures below.,NA,NA,65,NA,,warmup/sequoia.jpg,trees,graduated_college,A2BLQ1GVEHJR8T,English,female,NA,trees,NA,2,1566417305133,2,NA,This is a ,1.00,These are both,NA,bonsai,warmup1
341,pine,Wed Aug 21 2019 14:55:05 GMT-0500 (CDT),NA,8,warmup/bonsai.jpg,redwood|sequoia,This is a ,no,1,3ZZAYRN1I6FJ5KHUN3YSSTTS1K6OTT,trees,susan,3S4AW7T80C6U5YX0LCMUGO9UECL4LV,bonsai,yes,Please label the pictures below.,NA,NA,65,NA,,warmup/sequoia.jpg,trees,graduated_college,A2BLQ1GVEHJR8T,English,female,NA,trees,NA,2,1566417305133,3,NA,This is a ,1.00,These are both,NA,bonsai,warmup1
341,tree,Wed Aug 21 2019 14:55:05 GMT-0500 (CDT),NA,8,warmup/bonsai.jpg,redwood|sequoia,This is a ,no,1,3ZZAYRN1I6FJ5KHUN3YSSTTS1K6OTT,trees,susan,3S4AW7T80C6U5YX0LCMUGO9UECL4LV,bonsai,yes,Please label the pictures below.,NA,NA,65,NA,,warmup/sequoia.jpg,trees,graduated_college,A2BLQ1GVEHJR8T,English,female,NA,trees,NA,2,1566417305133,4,NA,This is a ,1.00,These are both,NA,bonsai,warmup1
341,tree,Wed Aug 21 2019 14:55:05 GMT-0500 (CDT),NA,8,warmup/bonsai.jpg,redwood|sequoia,This is a ,no,1,3ZZAYRN1I6FJ5KHUN3YSSTTS1K6OTT,trees,susan,3S4AW7T80C6U5YX0LCMUGO9UECL4LV,bonsai,yes,Please label the pictures below.,NA,NA,65,NA,,warmup/sequoia.jpg,evergreens,graduated_college,A2BLQ1GVEHJR8T,English,female,NA,trees,NA,2,1566417305133,5,NA,This is a ,1.00,These are both,NA,bonsai,warmup1
341,tree,Wed Aug 21 2019 14:55:05 GMT-0500 (CDT),NA,8,warmup/bonsai.jpg,redwood|sequoia,This is a ,no,1,3ZZAYRN1I6FJ5KHUN3YSSTTS1K6OTT,trees,susan,3S4AW7T80C6U5YX0LCMUGO9UECL4LV,bonsai,yes,Please label the pictures below.,NA,NA,65,NA,,warmup/sequoia.jpg,trees,graduated_college,A2BLQ1GVEHJR8T,English,female,NA,trees,NA,2,1566417305133,6,NA,This is a ,1.00,These are both,NA,bonsai,warmup1
341,tree,Wed Aug 21 2019 14:55:05 GMT-0500 (CDT),NA,8,warmup/bonsai.jpg,redwood|sequoia,This is a ,no,1,3ZZAYRN1I6FJ5KHUN3YSSTTS1K6OTT,trees,susan,3S4AW7T80C6U5YX0LCMUGO9UECL4LV,bonsai,yes,Please label the pictures below.,NA,NA,65,NA,,warmup/sequoia.jpg,trees,graduated_college,A2BLQ1GVEHJR8T,English,female,NA,trees,NA,2,1566417305133,7,NA,This is a ,1.00,These are both,NA,bonsai,warmup1
341,tree,Wed Aug 21 2019 14:55:05 GMT-0500 (CDT),NA,8,warmup/bonsai.jpg,redwood|sequoia,This is a ,no,1,3ZZAYRN1I6FJ5KHUN3YSSTTS1K6OTT,trees,susan,3S4AW7T80C6U5YX0LCMUGO9UECL4LV,bonsai,yes,Please label the pictures below.,NA,NA,65,NA,,warmup/sequoia.jpg,trees,graduated_college,A2BLQ1GVEHJR8T,English,female,NA,trees,NA,2,1566417305133,8,NA,This is a ,1.00,These are both,NA,tree,warmup1
341,redwood,Wed Aug 21 2019 14:55:05 GMT-0500 (CDT),NA,8,warmup/bonsai.jpg,redwood|sequoia,This is a ,no,1,3ZZAYRN1I6FJ5KHUN3YSSTTS1K6OTT,trees,susan,3S4AW7T80C6U5YX0LCMUGO9UECL4LV,bonsai,yes,Please label the pictures below.,NA,NA,65,NA,,warmup/sequoia.jpg,trees,graduated_college,A2BLQ1GVEHJR8T,English,female,NA,trees,NA,2,1566417305133,9,NA,This is a ,1.00,These are both,NA,bonsai,warmup1
341,swan,Wed Aug 21 2019 14:55:05 GMT-0500 (CDT),NA,8,warmup/canary.jpg,swan,This is a ,no,1,3ZZAYRN1I6FJ5KHUN3YSSTTS1K6OTT,birds,susan,3S4AW7T80C6U5YX0LCMUGO9UECL4LV,canary,yes,Please label the pictures below.,NA,NA,65,NA,,warmup/swan.jpg,birds,graduated_college,A2BLQ1GVEHJR8T,English,female,NA,birds,NA,3,1566417305133,1,NA,This is a ,1.00,These are both,NA,finch,warmup1
341,swan,Wed Aug 21 2019 14:55:05 GMT-0500 (CDT),NA,8,warmup/canary.jpg,swan,This is a ,no,1,3ZZAYRN1I6FJ5KHUN3YSSTTS1K6OTT,birds,susan,3S4AW7T80C6U5YX0LCMUGO9UECL4LV,canary,yes,Please label the pictures below.,NA,NA,65,NA,,warmup/swan.jpg,birds,graduated_college,A2BLQ1GVEHJR8T,English,female,NA,birds,NA,3,1566417305133,2,NA,This is a ,1.00,These are both,NA,canary,warmup1
341,NA,Wed Aug 21 2019 14:55:05 GMT-0500 (CDT),images/bird-parade3.png,8,NA,NA,That ,no,1,3ZZAYRN1I6FJ5KHUN3YSSTTS1K6OTT,birds,susan,3S4AW7T80C6U5YX0LCMUGO9UECL4LV,NA,yes,This one is also in the parade.,predicative,You say to your friend:,65,bird,,NA,NA,graduated_college,A2BLQ1GVEHJR8T,English,female,,NA,You see a parade of animals.,1,1566417305133,NA,images/canary.png,NA,1.00, is small.,small,NA,main1
341,NA,Wed Aug 21 2019 14:55:05 GMT-0500 (CDT),images/tree-parade.png,8,NA,NA,That ,no,1,3ZZAYRN1I6FJ5KHUN3YSSTTS1K6OTT,trees,susan,3S4AW7T80C6U5YX0LCMUGO9UECL4LV,NA,yes,This one is also in the landscape.,predicative,You say to your friend:,65,redwood,,NA,NA,graduated_college,A2BLQ1GVEHJR8T,English,female,,NA,You see the following items in a landscape.,2,1566417305133,NA,images/sequoia.png,NA,1.00, is big.,big,NA,main1
341,NA,Wed Aug 21 2019 14:55:05 GMT-0500 (CDT),images/fish-parade.png,8,NA,NA,That ,no,1,3ZZAYRN1I6FJ5KHUN3YSSTTS1K6OTT,fish,susan,3S4AW7T80C6U5YX0LCMUGO9UECL4LV,NA,yes,This one is also in the parade.,predicative,You say to your friend:,65,goldfish,,NA,NA,graduated_college,A2BLQ1GVEHJR8T,English,female,,NA,You see a parade of animals.,3,1566417305133,NA,images/goldfish.png,NA,1.00, is small.,small,NA,main1
341,bulldog,Wed Aug 21 2019 14:55:05 GMT-0500 (CDT),NA,8,warmup/great-dane.jpg,pug,This is a ,no,1,3ZZAYRN1I6FJ5KHUN3YSSTTS1K6OTT,dogs,susan,3S4AW7T80C6U5YX0LCMUGO9UECL4LV,great dane,yes,Please label the pictures below.,NA,NA,65,NA,,warmup/pug.jpg,dogs,graduated_college,A2BLQ1GVEHJR8T,English,female,NA,dogs,NA,1,1566417305133,1,NA,This is a ,1.00,These are both,NA,great dane,warmup2
341,pug,Wed Aug 21 2019 14:55:05 GMT-0500 (CDT),NA,8,warmup/great-dane.jpg,pug,This is a ,no,1,3ZZAYRN1I6FJ5KHUN3YSSTTS1K6OTT,dogs,susan,3S4AW7T80C6U5YX0LCMUGO9UECL4LV,great dane,yes,Please label the pictures below.,NA,NA,65,NA,,warmup/pug.jpg,dogs,graduated_college,A2BLQ1GVEHJR8T,English,female,NA,dogs,NA,1,1566417305133,2,NA,This is a ,1.00,These are both,NA,great dane,warmup2
341,hummingbird,Wed Aug 21 2019 14:55:05 GMT-0500 (CDT),NA,8,warmup/eagle.jpg,hummingbird,This is a ,no,1,3ZZAYRN1I6FJ5KHUN3YSSTTS1K6OTT,birds,susan,3S4AW7T80C6U5YX0LCMUGO9UECL4LV,eagle,yes,Please label the pictures below.,NA,NA,65,NA,,warmup/colibri.jpg,birds,graduated_college,A2BLQ1GVEHJR8T,English,female,NA,birds,NA,2,1566417305133,1,NA,This is an ,1.00,These are both,NA,eagle,warmup2
341,grouper,Wed Aug 21 2019 14:55:05 GMT-0500 (CDT),NA,8,warmup/clownfish.jpg,tuna,This is a ,no,1,3ZZAYRN1I6FJ5KHUN3YSSTTS1K6OTT,fish,susan,3S4AW7T80C6U5YX0LCMUGO9UECL4LV,clownfish,yes,Please label the pictures below.,NA,NA,65,NA,,warmup/tuna.jpg,fish,graduated_college,A2BLQ1GVEHJR8T,English,female,NA,fish,NA,3,1566417305133,1,NA,This is a ,1.00,These are both,NA,tigerfish,warmup2
341,tuna,Wed Aug 21 2019 14:55:05 GMT-0500 (CDT),NA,8,warmup/clownfish.jpg,tuna,This is a ,no,1,3ZZAYRN1I6FJ5KHUN3YSSTTS1K6OTT,fish,susan,3S4AW7T80C6U5YX0LCMUGO9UECL4LV,clownfish,yes,Please label the pictures below.,NA,NA,65,NA,,warmup/tuna.jpg,fish,graduated_college,A2BLQ1GVEHJR8T,English,female,NA,fish,NA,3,1566417305133,2,NA,This is a ,1.00,These are both,NA,clownfish,warmup2
341,NA,Wed Aug 21 2019 14:55:05 GMT-0500 (CDT),images/bird-parade2.png,8,NA,NA,That ,no,1,3ZZAYRN1I6FJ5KHUN3YSSTTS1K6OTT,birds,susan,3S4AW7T80C6U5YX0LCMUGO9UECL4LV,NA,yes,This one is also in the parade.,predicative,You say to your friend:,65,eagle,,NA,NA,graduated_college,A2BLQ1GVEHJR8T,English,female,,NA,You see a parade of animals.,1,1566417305133,NA,images/eagle.png,NA,1.00, is big.,big,NA,main2
341,NA,Wed Aug 21 2019 14:55:05 GMT-0500 (CDT),images/fish-parade2.png,8,NA,NA,That ,no,1,3ZZAYRN1I6FJ5KHUN3YSSTTS1K6OTT,fish,susan,3S4AW7T80C6U5YX0LCMUGO9UECL4LV,NA,yes,This one is also in the parade.,predicative,You say to your friend:,65,clownfish,,NA,NA,graduated_college,A2BLQ1GVEHJR8T,English,female,,NA,You see a parade of animals.,2,1566417305133,NA,images/clownfish.png,NA,1.00, is small.,small,NA,main2
341,NA,Wed Aug 21 2019 14:55:05 GMT-0500 (CDT),images/dog-parade2.png,8,NA,NA,That ,no,1,3ZZAYRN1I6FJ5KHUN3YSSTTS1K6OTT,dogs,susan,3S4AW7T80C6U5YX0LCMUGO9UECL4LV,NA,yes,This one is also in the parade.,predicative,You say to your friend:,65,great dane,,NA,NA,graduated_college,A2BLQ1GVEHJR8T,English,female,,NA,You see a parade of animals.,3,1566417305133,NA,images/great-dane.png,NA,1.00, is big.,big,NA,main2
338,tulip,Wed Aug 21 2019 12:37:30 GMT-0700 (Pacific Daylight Time),NA,8,warmup/sunflower.png,dandelion,This is a ,none,1,3IKMEYR0LWJ6VU226WM3KP3TH2JK2D,flowers,jessica,33SA9F9TRYIS8U6SEW59YL21P8JEW4,sunflower,yes,Please label the pictures below.,NA,NA,32,NA,none,warmup/dandelion.jpg,flowers,some_college,A3GK90X2QOFR53,English,male,NA,flowers,NA,1,1566416250664,1,NA,This is a ,1.25,These are both,NA,daisy,warmup1
338,dandelion,Wed Aug 21 2019 12:37:30 GMT-0700 (Pacific Daylight Time),NA,8,warmup/sunflower.png,dandelion,This is a ,none,1,3IKMEYR0LWJ6VU226WM3KP3TH2JK2D,flowers,jessica,33SA9F9TRYIS8U6SEW59YL21P8JEW4,sunflower,yes,Please label the pictures below.,NA,NA,32,NA,none,warmup/dandelion.jpg,flowers,some_college,A3GK90X2QOFR53,English,male,NA,flowers,NA,1,1566416250664,2,NA,This is a ,1.25,These are both,NA,sunflower,warmup1
338,tulip,Wed Aug 21 2019 12:37:30 GMT-0700 (Pacific Daylight Time),NA,8,warmup/peony.png,daisy,This is a ,none,1,3IKMEYR0LWJ6VU226WM3KP3TH2JK2D,flowers,jessica,33SA9F9TRYIS8U6SEW59YL21P8JEW4,peony,yes,Please label the pictures below.,NA,NA,32,NA,none,warmup/daisy.png,flowers,some_college,A3GK90X2QOFR53,English,male,NA,flowers,NA,2,1566416250664,1,NA,This is a ,1.25,These are both,NA,rose,warmup1
338,daisy,Wed Aug 21 2019 12:37:30 GMT-0700 (Pacific Daylight Time),NA,8,warmup/peony.png,daisy,This is a ,none,1,3IKMEYR0LWJ6VU226WM3KP3TH2JK2D,flowers,jessica,33SA9F9TRYIS8U6SEW59YL21P8JEW4,peony,yes,Please label the pictures below.,NA,NA,32,NA,none,warmup/daisy.png,flowers,some_college,A3GK90X2QOFR53,English,male,NA,flowers,NA,2,1566416250664,2,NA,This is a ,1.25,These are both,NA,peony,warmup1
338,trout,Wed Aug 21 2019 12:37:30 GMT-0700 (Pacific Daylight Time),NA,8,warmup/clownfish.jpg,tuna,This is a ,none,1,3IKMEYR0LWJ6VU226WM3KP3TH2JK2D,fish,jessica,33SA9F9TRYIS8U6SEW59YL21P8JEW4,clownfish,yes,Please label the pictures below.,NA,NA,32,NA,none,warmup/tuna.jpg,fish,some_college,A3GK90X2QOFR53,English,male,NA,fish,NA,3,1566416250664,1,NA,This is a ,1.25,These are both,NA,goldfish,warmup1
338,tuna,Wed Aug 21 2019 12:37:30 GMT-0700 (Pacific Daylight Time),NA,8,warmup/clownfish.jpg,tuna,This is a ,none,1,3IKMEYR0LWJ6VU226WM3KP3TH2JK2D,fish,jessica,33SA9F9TRYIS8U6SEW59YL21P8JEW4,clownfish,yes,Please label the pictures below.,NA,NA,32,NA,none,warmup/tuna.jpg,fish,some_college,A3GK90X2QOFR53,English,male,NA,fish,NA,3,1566416250664,2,NA,This is a ,1.25,These are both,NA,clownfish,warmup1
338,NA,Wed Aug 21 2019 12:37:30 GMT-0700 (Pacific Daylight Time),images/flower-parade.png,8,NA,NA,That ,none,1,3IKMEYR0LWJ6VU226WM3KP3TH2JK2D,flowers,jessica,33SA9F9TRYIS8U6SEW59YL21P8JEW4,NA,yes,This one is also in the collection.,predicative,You say to your friend:,32,flower,none,NA,NA,some_college,A3GK90X2QOFR53,English,male,,NA,You see a collection of plants.,1,1566416250664,NA,images/peony.png,NA,1.25, is big.,big,NA,main1
338,NA,Wed Aug 21 2019 12:37:30 GMT-0700 (Pacific Daylight Time),images/fish-parade2.png,8,NA,NA,That ,none,1,3IKMEYR0LWJ6VU226WM3KP3TH2JK2D,fish,jessica,33SA9F9TRYIS8U6SEW59YL21P8JEW4,NA,yes,This one is also in the parade.,predicative,You say to your friend:,32,tuna,none,NA,NA,some_college,A3GK90X2QOFR53,English,male,,NA,You see a parade of animals.,2,1566416250664,NA,images/tuna.png,NA,1.25, is big.,big,NA,main1
338,NA,Wed Aug 21 2019 12:37:30 GMT-0700 (Pacific Daylight Time),images/flower-parade2.png,8,NA,NA,That ,none,1,3IKMEYR0LWJ6VU226WM3KP3TH2JK2D,flowers,jessica,33SA9F9TRYIS8U6SEW59YL21P8JEW4,NA,yes,This one is also in the collection.,predicative,You say to your friend:,32,sunflower,none,NA,NA,some_college,A3GK90X2QOFR53,English,male,,NA,You see a collection of plants.,3,1566416250664,NA,images/sunflower.png,NA,1.25, is big.,big,NA,main1
338,goose,Wed Aug 21 2019 12:37:30 GMT-0700 (Pacific Daylight Time),NA,8,warmup/sparrow.jpg,goose,This is a ,none,1,3IKMEYR0LWJ6VU226WM3KP3TH2JK2D,birds,jessica,33SA9F9TRYIS8U6SEW59YL21P8JEW4,sparrow,yes,Please label the pictures below.,NA,NA,32,NA,none,warmup/goose.png,birds,some_college,A3GK90X2QOFR53,English,male,NA,birds,NA,1,1566416250664,1,NA,This is a ,1.25,These are both,NA,hummingbird,warmup2
338,goose,Wed Aug 21 2019 12:37:30 GMT-0700 (Pacific Daylight Time),NA,8,warmup/sparrow.jpg,goose,This is a ,none,1,3IKMEYR0LWJ6VU226WM3KP3TH2JK2D,birds,jessica,33SA9F9TRYIS8U6SEW59YL21P8JEW4,sparrow,yes,Please label the pictures below.,NA,NA,32,NA,none,warmup/goose.png,birds,some_college,A3GK90X2QOFR53,English,male,NA,birds,NA,1,1566416250664,2,NA,This is a ,1.25,These are both,NA,sparrow,warmup2
338,redwood,Wed Aug 21 2019 12:37:30 GMT-0700 (Pacific Daylight Time),NA,8,warmup/bonsai.jpg,redwood|sequoia,This is a ,none,1,3IKMEYR0LWJ6VU226WM3KP3TH2JK2D,trees,jessica,33SA9F9TRYIS8U6SEW59YL21P8JEW4,bonsai,yes,Please label the pictures below.,NA,NA,32,NA,none,warmup/sequoia.jpg,trees,some_college,A3GK90X2QOFR53,English,male,NA,trees,NA,2,1566416250664,1,NA,This is a ,1.25,These are both,NA,bonsai,warmup2
338,pug,Wed Aug 21 2019 12:37:30 GMT-0700 (Pacific Daylight Time),NA,8,warmup/great-dane.jpg,pug,This is a ,none,1,3IKMEYR0LWJ6VU226WM3KP3TH2JK2D,dogs,jessica,33SA9F9TRYIS8U6SEW59YL21P8JEW4,great dane,yes,Please label the pictures below.,NA,NA,32,NA,none,warmup/pug.jpg,dogs,some_college,A3GK90X2QOFR53,English,male,NA,dogs,NA,3,1566416250664,1,NA,This is a ,1.25,These are both,NA,labador,warmup2
338,pug,Wed Aug 21 2019 12:37:30 GMT-0700 (Pacific Daylight Time),NA,8,warmup/great-dane.jpg,pug,This is a ,none,1,3IKMEYR0LWJ6VU226WM3KP3TH2JK2D,dogs,jessica,33SA9F9TRYIS8U6SEW59YL21P8JEW4,great dane,yes,Please label the pictures below.,NA,NA,32,NA,none,warmup/pug.jpg,dogs,some_college,A3GK90X2QOFR53,English,male,NA,dogs,NA,3,1566416250664,2,NA,This is a ,1.25,These are both,NA,great dane,warmup2
338,NA,Wed Aug 21 2019 12:37:30 GMT-0700 (Pacific Daylight Time),images/tree-parade.png,8,NA,NA,That ,none,1,3IKMEYR0LWJ6VU226WM3KP3TH2JK2D,trees,jessica,33SA9F9TRYIS8U6SEW59YL21P8JEW4,NA,yes,This one is also in the landscape.,predicative,You say to your friend:,32,tree,none,NA,NA,some_college,A3GK90X2QOFR53,English,male,,NA,You see the following items in a landscape.,1,1566416250664,NA,images/bonsai.png,NA,1.25, is small.,small,NA,main2
338,NA,Wed Aug 21 2019 12:37:30 GMT-0700 (Pacific Daylight Time),images/dog-parade2.png,8,NA,NA,That ,none,1,3IKMEYR0LWJ6VU226WM3KP3TH2JK2D,dogs,jessica,33SA9F9TRYIS8U6SEW59YL21P8JEW4,NA,yes,This one is also in the parade.,predicative,You say to your friend:,32,dog,none,NA,NA,some_college,A3GK90X2QOFR53,English,male,,NA,You see a parade of animals.,2,1566416250664,NA,images/pug.png,NA,1.25, is small.,small,NA,main2
338,NA,Wed Aug 21 2019 12:37:30 GMT-0700 (Pacific Daylight Time),images/bird-parade.png,8,NA,NA,That ,none,1,3IKMEYR0LWJ6VU226WM3KP3TH2JK2D,birds,jessica,33SA9F9TRYIS8U6SEW59YL21P8JEW4,NA,yes,This one is also in the parade.,predicative,You say to your friend:,32,bird,none,NA,NA,some_college,A3GK90X2QOFR53,English,male,,NA,You see a parade of animals.,3,1566416250664,NA,images/sparrow.png,NA,1.25, is small.,small,NA,main2
337,tree,Wed Aug 21 2019 14:32:43 GMT-0500 (Central Daylight Time),NA,8,warmup/bonsai.jpg,redwood|sequoia,This is a ,no,1,3W0XM68YZPJZ69K6NSMPF6TOPW5K1W,trees,margaret,3DHE4R9OCXZ4GS4C676QAH7OYH4G26,bonsai,yes,Please label the pictures below.,NA,NA,22,NA,,warmup/sequoia.jpg,trees,graduated_college,A2UREJJH126LX9,english,male,NA,trees,NA,1,1566415963741,1,NA,This is a ,1.50,These are both,NA,tree,warmup1
337,redwood,Wed Aug 21 2019 14:32:43 GMT-0500 (Central Daylight Time),NA,8,warmup/bonsai.jpg,redwood|sequoia,This is a ,no,1,3W0XM68YZPJZ69K6NSMPF6TOPW5K1W,trees,margaret,3DHE4R9OCXZ4GS4C676QAH7OYH4G26,bonsai,yes,Please label the pictures below.,NA,NA,22,NA,,warmup/sequoia.jpg,trees,graduated_college,A2UREJJH126LX9,english,male,NA,trees,NA,1,1566415963741,2,NA,This is a ,1.50,These are both,NA,bonsai,warmup1
337,tuna,Wed Aug 21 2019 14:32:43 GMT-0500 (Central Daylight Time),NA,8,warmup/clownfish.jpg,tuna,This is a ,no,1,3W0XM68YZPJZ69K6NSMPF6TOPW5K1W,fish,margaret,3DHE4R9OCXZ4GS4C676QAH7OYH4G26,clownfish,yes,Please label the pictures below.,NA,NA,22,NA,,warmup/tuna.jpg,fish,graduated_college,A2UREJJH126LX9,english,male,NA,fish,NA,2,1566415963741,1,NA,This is a ,1.50,These are both,NA,clown fish,warmup1
337,tuna,Wed Aug 21 2019 14:32:43 GMT-0500 (Central Daylight Time),NA,8,warmup/clownfish.jpg,tuna,This is a ,no,1,3W0XM68YZPJZ69K6NSMPF6TOPW5K1W,fish,margaret,3DHE4R9OCXZ4GS4C676QAH7OYH4G26,clownfish,yes,Please label the pictures below.,NA,NA,22,NA,,warmup/tuna.jpg,fish,graduated_college,A2UREJJH126LX9,english,male,NA,fish,NA,2,1566415963741,2,NA,This is a ,1.50,These are both,NA,clownfish,warmup1
337,marlin,Wed Aug 21 2019 14:32:43 GMT-0500 (Central Daylight Time),NA,8,warmup/goldfish.png,swordfish,This is a ,no,1,3W0XM68YZPJZ69K6NSMPF6TOPW5K1W,fish,margaret,3DHE4R9OCXZ4GS4C676QAH7OYH4G26,goldfish,yes,Please label the pictures below.,NA,NA,22,NA,,warmup/swordfish.jpg,fish,graduated_college,A2UREJJH126LX9,english,male,NA,fish,NA,3,1566415963741,1,NA,This is a ,1.50,These are both,NA,goldfish,warmup1
337,swordfish,Wed Aug 21 2019 14:32:43 GMT-0500 (Central Daylight Time),NA,8,warmup/goldfish.png,swordfish,This is a ,no,1,3W0XM68YZPJZ69K6NSMPF6TOPW5K1W,fish,margaret,3DHE4R9OCXZ4GS4C676QAH7OYH4G26,goldfish,yes,Please label the pictures below.,NA,NA,22,NA,,warmup/swordfish.jpg,fish,graduated_college,A2UREJJH126LX9,english,male,NA,fish,NA,3,1566415963741,2,NA,This is a ,1.50,These are both,NA,goldfish,warmup1
337,NA,Wed Aug 21 2019 14:32:43 GMT-0500 (Central Daylight Time),images/fish-parade2.png,8,NA,NA,That ,no,1,3W0XM68YZPJZ69K6NSMPF6TOPW5K1W,fish,margaret,3DHE4R9OCXZ4GS4C676QAH7OYH4G26,NA,yes,This one is also in the parade.,predicative,You say to your friend:,22,fish,,NA,NA,graduated_college,A2UREJJH126LX9,english,male,,NA,You see a parade of animals.,1,1566415963741,NA,images/clownfish.png,NA,1.50, is small.,small,NA,main1
337,NA,Wed Aug 21 2019 14:32:43 GMT-0500 (Central Daylight Time),images/tree-parade.png,8,NA,NA,That ,no,1,3W0XM68YZPJZ69K6NSMPF6TOPW5K1W,trees,margaret,3DHE4R9OCXZ4GS4C676QAH7OYH4G26,NA,yes,This one is also in the landscape.,predicative,You say to your friend:,22,redwood,,NA,NA,graduated_college,A2UREJJH126LX9,english,male,,NA,You see the following items in a landscape.,2,1566415963741,NA,images/sequoia.png,NA,1.50, is big.,big,NA,main1
337,NA,Wed Aug 21 2019 14:32:43 GMT-0500 (Central Daylight Time),images/fish-parade.png,8,NA,NA,That ,no,1,3W0XM68YZPJZ69K6NSMPF6TOPW5K1W,fish,margaret,3DHE4R9OCXZ4GS4C676QAH7OYH4G26,NA,yes,This one is also in the parade.,predicative,You say to your friend:,22,goldfish,,NA,NA,graduated_college,A2UREJJH126LX9,english,male,,NA,You see a parade of animals.,3,1566415963741,NA,images/goldfish.png,NA,1.50, is small.,small,NA,main1
337,dandelion,Wed Aug 21 2019 14:32:43 GMT-0500 (Central Daylight Time),NA,8,warmup/peony.png,daisy,This is a ,no,1,3W0XM68YZPJZ69K6NSMPF6TOPW5K1W,flowers,margaret,3DHE4R9OCXZ4GS4C676QAH7OYH4G26,peony,yes,Please label the pictures below.,NA,NA,22,NA,,warmup/daisy.png,flowers,graduated_college,A2UREJJH126LX9,english,male,NA,flowers,NA,1,1566415963741,1,NA,This is a ,1.50,These are both,NA,rose,warmup2
337,daisy,Wed Aug 21 2019 14:32:43 GMT-0500 (Central Daylight Time),NA,8,warmup/peony.png,daisy,This is a ,no,1,3W0XM68YZPJZ69K6NSMPF6TOPW5K1W,flowers,margaret,3DHE4R9OCXZ4GS4C676QAH7OYH4G26,peony,yes,Please label the pictures below.,NA,NA,22,NA,,warmup/daisy.png,flowers,graduated_college,A2UREJJH126LX9,english,male,NA,flowers,NA,1,1566415963741,2,NA,This is a ,1.50,These are both,NA,peony,warmup2
337,hummingbird,Wed Aug 21 2019 14:32:43 GMT-0500 (Central Daylight Time),NA,8,warmup/eagle.jpg,hummingbird,This is a ,no,1,3W0XM68YZPJZ69K6NSMPF6TOPW5K1W,birds,margaret,3DHE4R9OCXZ4GS4C676QAH7OYH4G26,eagle,yes,Please label the pictures below.,NA,NA,22,NA,,warmup/colibri.jpg,birds,graduated_college,A2UREJJH126LX9,english,male,NA,birds,NA,2,1566415963741,1,NA,This is an ,1.50,These are both,NA,eagle,warmup2
337,dandelion,Wed Aug 21 2019 14:32:43 GMT-0500 (Central Daylight Time),NA,8,warmup/sunflower.png,dandelion,This is a ,no,1,3W0XM68YZPJZ69K6NSMPF6TOPW5K1W,flowers,margaret,3DHE4R9OCXZ4GS4C676QAH7OYH4G26,sunflower,yes,Please label the pictures below.,NA,NA,22,NA,,warmup/dandelion.jpg,flowers,graduated_college,A2UREJJH126LX9,english,male,NA,flowers,NA,3,1566415963741,1,NA,This is a ,1.50,These are both,NA,sunflower,warmup2
337,NA,Wed Aug 21 2019 14:32:43 GMT-0500 (Central Daylight Time),images/flower-parade2.png,8,NA,NA,That ,no,1,3W0XM68YZPJZ69K6NSMPF6TOPW5K1W,flowers,margaret,3DHE4R9OCXZ4GS4C676QAH7OYH4G26,NA,yes,This one is also in the collection.,predicative,You say to your friend:,22,dandelion,,NA,NA,graduated_college,A2UREJJH126LX9,english,male,,NA,You see a collection of plants.,1,1566415963741,NA,images/dandelion.png,NA,1.50, is small.,small,NA,main2
337,NA,Wed Aug 21 2019 14:32:43 GMT-0500 (Central Daylight Time),images/bird-parade2.png,8,NA,NA,That ,no,1,3W0XM68YZPJZ69K6NSMPF6TOPW5K1W,birds,margaret,3DHE4R9OCXZ4GS4C676QAH7OYH4G26,NA,yes,This one is also in the parade.,predicative,You say to your friend:,22,eagle,,NA,NA,graduated_college,A2UREJJH126LX9,english,male,,NA,You see a parade of animals.,2,1566415963741,NA,images/eagle.png,NA,1.50, is big.,big,NA,main2
337,NA,Wed Aug 21 2019 14:32:43 GMT-0500 (Central Daylight Time),images/flower-parade.png,8,NA,NA,That ,no,1,3W0XM68YZPJZ69K6NSMPF6TOPW5K1W,flowers,margaret,3DHE4R9OCXZ4GS4C676QAH7OYH4G26,NA,yes,This one is also in the collection.,predicative,You say to your friend:,22,rose,,NA,NA,graduated_college,A2UREJJH126LX9,english,male,,NA,You see a collection of plants.,3,1566415963741,NA,images/peony.png,NA,1.50, is big.,big,NA,main2
334,daisy,Wed Aug 21 2019 15:33:01 GMT-0400 (Eastern Daylight Time),NA,8,warmup/sunflower.png,dandelion,This is a ,No.,2,3ZZAYRN1I6FJ5KHUN3YSSTTS1K6OTT,flowers,Linda,3Q5C1WP23NPZBAXW67NL116UG2251M,sunflower,yes,Please label the pictures below.,NA,NA,33,NA,Thank you.,warmup/dandelion.jpg,flowers,graduated_high_school,A1F1BIPJR11LSR,English,other,NA,flowers,NA,1,1566415981835,1,NA,This is a ,1,These are both,NA,sunflower,warmup1
334,dandelion,Wed Aug 21 2019 15:33:01 GMT-0400 (Eastern Daylight Time),NA,8,warmup/sunflower.png,dandelion,This is a ,No.,2,3ZZAYRN1I6FJ5KHUN3YSSTTS1K6OTT,flowers,Linda,3Q5C1WP23NPZBAXW67NL116UG2251M,sunflower,yes,Please label the pictures below.,NA,NA,33,NA,Thank you.,warmup/dandelion.jpg,flowers,graduated_high_school,A1F1BIPJR11LSR,English,other,NA,flowers,NA,1,1566415981835,2,NA,This is a ,1,These are both,NA,sunflower,warmup1
334,daisy,Wed Aug 21 2019 15:33:01 GMT-0400 (Eastern Daylight Time),NA,8,warmup/peony.png,daisy,This is a ,No.,2,3ZZAYRN1I6FJ5KHUN3YSSTTS1K6OTT,flowers,Linda,3Q5C1WP23NPZBAXW67NL116UG2251M,peony,yes,Please label the pictures below.,NA,NA,33,NA,Thank you.,warmup/daisy.png,flowers,graduated_high_school,A1F1BIPJR11LSR,English,other,NA,flowers,NA,2,1566415981835,1,NA,This is a ,1,These are both,NA,rose,warmup1
334,daisy,Wed Aug 21 2019 15:33:01 GMT-0400 (Eastern Daylight Time),NA,8,warmup/peony.png,daisy,This is a ,No.,2,3ZZAYRN1I6FJ5KHUN3YSSTTS1K6OTT,flowers,Linda,3Q5C1WP23NPZBAXW67NL116UG2251M,peony,yes,Please label the pictures below.,NA,NA,33,NA,Thank you.,warmup/daisy.png,flowers,graduated_high_school,A1F1BIPJR11LSR,English,other,NA,flowers,NA,2,1566415981835,2,NA,This is a ,1,These are both,NA,peony,warmup1
334,pug,Wed Aug 21 2019 15:33:01 GMT-0400 (Eastern Daylight Time),NA,8,warmup/great-dane.jpg,pug,This is a ,No.,2,3ZZAYRN1I6FJ5KHUN3YSSTTS1K6OTT,dogs,Linda,3Q5C1WP23NPZBAXW67NL116UG2251M,great dane,yes,Please label the pictures below.,NA,NA,33,NA,Thank you.,warmup/pug.jpg,dogs,graduated_high_school,A1F1BIPJR11LSR,English,other,NA,dogs,NA,3,1566415981835,1,NA,This is a ,1,These are both,NA,terrier,warmup1
334,pug,Wed Aug 21 2019 15:33:01 GMT-0400 (Eastern Daylight Time),NA,8,warmup/great-dane.jpg,pug,This is a ,No.,2,3ZZAYRN1I6FJ5KHUN3YSSTTS1K6OTT,dogs,Linda,3Q5C1WP23NPZBAXW67NL116UG2251M,great dane,yes,Please label the pictures below.,NA,NA,33,NA,Thank you.,warmup/pug.jpg,dogs,graduated_high_school,A1F1BIPJR11LSR,English,other,NA,dogs,NA,3,1566415981835,2,NA,This is a ,1,These are both,NA,great dane,warmup1
334,NA,Wed Aug 21 2019 15:33:01 GMT-0400 (Eastern Daylight Time),images/dog-parade2.png,8,NA,NA,That ,No.,2,3ZZAYRN1I6FJ5KHUN3YSSTTS1K6OTT,dogs,Linda,3Q5C1WP23NPZBAXW67NL116UG2251M,NA,yes,This one is also in the parade.,predicative,You say to your friend:,33,pug,Thank you.,NA,NA,graduated_high_school,A1F1BIPJR11LSR,English,other,,NA,You see a parade of animals.,1,1566415981835,NA,images/pug.png,NA,1, is small.,small,NA,main1
334,NA,Wed Aug 21 2019 15:33:01 GMT-0400 (Eastern Daylight Time),images/flower-parade.png,8,NA,NA,That ,No.,2,3ZZAYRN1I6FJ5KHUN3YSSTTS1K6OTT,flowers,Linda,3Q5C1WP23NPZBAXW67NL116UG2251M,NA,yes,This one is also in the collection.,predicative,You say to your friend:,33,peondy,Thank you.,NA,NA,graduated_high_school,A1F1BIPJR11LSR,English,other,,NA,You see a collection of plants.,2,1566415981835,NA,images/peony.png,NA,1, is big.,big,NA,main1
334,NA,Wed Aug 21 2019 15:33:01 GMT-0400 (Eastern Daylight Time),images/flower-parade2.png,8,NA,NA,That ,No.,2,3ZZAYRN1I6FJ5KHUN3YSSTTS1K6OTT,flowers,Linda,3Q5C1WP23NPZBAXW67NL116UG2251M,NA,yes,This one is also in the collection.,predicative,You say to your friend:,33,sunflower,Thank you.,NA,NA,graduated_high_school,A1F1BIPJR11LSR,English,other,,NA,You see a collection of plants.,3,1566415981835,NA,images/sunflower.png,NA,1, is big.,big,NA,main1
334,tuna,Wed Aug 21 2019 15:33:01 GMT-0400 (Eastern Daylight Time),NA,8,warmup/clownfish.jpg,tuna,This is a ,No.,2,3ZZAYRN1I6FJ5KHUN3YSSTTS1K6OTT,fish,Linda,3Q5C1WP23NPZBAXW67NL116UG2251M,clownfish,yes,Please label the pictures below.,NA,NA,33,NA,Thank you.,warmup/tuna.jpg,fish,graduated_high_school,A1F1BIPJR11LSR,English,other,NA,fish,NA,1,1566415981835,1,NA,This is a ,1,These are both,NA,clownfish,warmup2
334,goose,Wed Aug 21 2019 15:33:01 GMT-0400 (Eastern Daylight Time),NA,8,warmup/sparrow.jpg,goose,This is a ,No.,2,3ZZAYRN1I6FJ5KHUN3YSSTTS1K6OTT,birds,Linda,3Q5C1WP23NPZBAXW67NL116UG2251M,sparrow,yes,Please label the pictures below.,NA,NA,33,NA,Thank you.,warmup/goose.png,birds,graduated_high_school,A1F1BIPJR11LSR,English,other,NA,birds,NA,2,1566415981835,1,NA,This is a ,1,These are both,NA,pigeon,warmup2
334,goose,Wed Aug 21 2019 15:33:01 GMT-0400 (Eastern Daylight Time),NA,8,warmup/sparrow.jpg,goose,This is a ,No.,2,3ZZAYRN1I6FJ5KHUN3YSSTTS1K6OTT,birds,Linda,3Q5C1WP23NPZBAXW67NL116UG2251M,sparrow,yes,Please label the pictures below.,NA,NA,33,NA,Thank you.,warmup/goose.png,birds,graduated_high_school,A1F1BIPJR11LSR,English,other,NA,birds,NA,2,1566415981835,2,NA,This is a ,1,These are both,NA,sparrow,warmup2
334,swordfish,Wed Aug 21 2019 15:33:01 GMT-0400 (Eastern Daylight Time),NA,8,warmup/goldfish.png,swordfish,This is a ,No.,2,3ZZAYRN1I6FJ5KHUN3YSSTTS1K6OTT,fish,Linda,3Q5C1WP23NPZBAXW67NL116UG2251M,goldfish,yes,Please label the pictures below.,NA,NA,33,NA,Thank you.,warmup/swordfish.jpg,fish,graduated_high_school,A1F1BIPJR11LSR,English,other,NA,fish,NA,3,1566415981835,1,NA,This is a ,1,These are both,NA,goldfish,warmup2
334,NA,Wed Aug 21 2019 15:33:01 GMT-0400 (Eastern Daylight Time),images/bird-parade.png,8,NA,NA,That ,No.,2,3ZZAYRN1I6FJ5KHUN3YSSTTS1K6OTT,birds,Linda,3Q5C1WP23NPZBAXW67NL116UG2251M,NA,yes,This one is also in the parade.,predicative,You say to your friend:,33,goose,Thank you.,NA,NA,graduated_high_school,A1F1BIPJR11LSR,English,other,,NA,You see a parade of animals.,1,1566415981835,NA,images/goose.png,NA,1, is big.,big,NA,main2
334,NA,Wed Aug 21 2019 15:33:01 GMT-0400 (Eastern Daylight Time),images/fish-parade2.png,8,NA,NA,That ,No.,2,3ZZAYRN1I6FJ5KHUN3YSSTTS1K6OTT,fish,Linda,3Q5C1WP23NPZBAXW67NL116UG2251M,NA,yes,This one is also in the parade.,predicative,You say to your friend:,33,clownfish,Thank you.,NA,NA,graduated_high_school,A1F1BIPJR11LSR,English,other,,NA,You see a parade of animals.,2,1566415981835,NA,images/clownfish.png,NA,1, is small.,small,NA,main2
334,NA,Wed Aug 21 2019 15:33:01 GMT-0400 (Eastern Daylight Time),images/fish-parade.png,8,NA,NA,That ,No.,2,3ZZAYRN1I6FJ5KHUN3YSSTTS1K6OTT,fish,Linda,3Q5C1WP23NPZBAXW67NL116UG2251M,NA,yes,This one is also in the parade.,predicative,You say to your friend:,33,goldfish,Thank you.,NA,NA,graduated_high_school,A1F1BIPJR11LSR,English,other,,NA,You see a parade of animals.,3,1566415981835,NA,images/goldfish.png,NA,1, is small.,small,NA,main2
330,goose,Wed Aug 21 2019 11:28:02 GMT-0800 (Alaska Daylight Time),NA,8,warmup/sparrow.jpg,goose,This is a ,no,1,3IKMEYR0LWJ6VU226WM3KP3TH2JK2D,birds,Linda,32SVAV9L3GXSRJNSO7SLX51D60HA3P,sparrow,yes,Please label the pictures below.,NA,NA,33,NA,,warmup/goose.png,birds,graduated_college,A14EYTLSMJRPUK,English,male,NA,birds,NA,1,1566415682955,1,NA,This is a ,1,These are both,NA,finch,warmup1
330,goose,Wed Aug 21 2019 11:28:02 GMT-0800 (Alaska Daylight Time),NA,8,warmup/sparrow.jpg,goose,This is a ,no,1,3IKMEYR0LWJ6VU226WM3KP3TH2JK2D,birds,Linda,32SVAV9L3GXSRJNSO7SLX51D60HA3P,sparrow,yes,Please label the pictures below.,NA,NA,33,NA,,warmup/goose.png,birds,graduated_college,A14EYTLSMJRPUK,English,male,NA,birds,NA,1,1566415682955,2,NA,This is a ,1,These are both,NA,sparrow,warmup1
330,chihuahua,Wed Aug 21 2019 11:28:02 GMT-0800 (Alaska Daylight Time),NA,8,warmup/doberman.png,chihuahua,This is a ,no,1,3IKMEYR0LWJ6VU226WM3KP3TH2JK2D,dogs,Linda,32SVAV9L3GXSRJNSO7SLX51D60HA3P,doberman,yes,Please label the pictures below.,NA,NA,33,NA,,warmup/chihuahua.jpg,dogs,graduated_college,A14EYTLSMJRPUK,English,male,NA,dogs,NA,2,1566415682955,1,NA,This is a ,1,These are both,NA,pointer,warmup1
330,chihuahua,Wed Aug 21 2019 11:28:02 GMT-0800 (Alaska Daylight Time),NA,8,warmup/doberman.png,chihuahua,This is a ,no,1,3IKMEYR0LWJ6VU226WM3KP3TH2JK2D,dogs,Linda,32SVAV9L3GXSRJNSO7SLX51D60HA3P,doberman,yes,Please label the pictures below.,NA,NA,33,NA,,warmup/chihuahua.jpg,dogs,graduated_college,A14EYTLSMJRPUK,English,male,NA,dogs,NA,2,1566415682955,2,NA,This is a ,1,These are both,NA,doberman,warmup1
330,bulldog,Wed Aug 21 2019 11:28:02 GMT-0800 (Alaska Daylight Time),NA,8,warmup/great-dane.jpg,pug,This is a ,no,1,3IKMEYR0LWJ6VU226WM3KP3TH2JK2D,dogs,Linda,32SVAV9L3GXSRJNSO7SLX51D60HA3P,great dane,yes,Please label the pictures below.,NA,NA,33,NA,,warmup/pug.jpg,dogs,graduated_college,A14EYTLSMJRPUK,English,male,NA,dogs,NA,3,1566415682955,1,NA,This is a ,1,These are both,NA,lab,warmup1
330,pug,Wed Aug 21 2019 11:28:02 GMT-0800 (Alaska Daylight Time),NA,8,warmup/great-dane.jpg,pug,This is a ,no,1,3IKMEYR0LWJ6VU226WM3KP3TH2JK2D,dogs,Linda,32SVAV9L3GXSRJNSO7SLX51D60HA3P,great dane,yes,Please label the pictures below.,NA,NA,33,NA,,warmup/pug.jpg,dogs,graduated_college,A14EYTLSMJRPUK,English,male,NA,dogs,NA,3,1566415682955,2,NA,This is a ,1,These are both,NA,great dane,warmup1
330,NA,Wed Aug 21 2019 11:28:02 GMT-0800 (Alaska Daylight Time),images/dog-parade2.png,8,NA,NA,That ,no,1,3IKMEYR0LWJ6VU226WM3KP3TH2JK2D,dogs,Linda,32SVAV9L3GXSRJNSO7SLX51D60HA3P,NA,yes,This one is also in the parade.,predicative,You say to your friend:,33,dog,,NA,NA,graduated_college,A14EYTLSMJRPUK,English,male,,NA,You see a parade of animals.,1,1566415682955,NA,images/pug.png,NA,1, is small.,small,NA,main1
330,NA,Wed Aug 21 2019 11:28:02 GMT-0800 (Alaska Daylight Time),images/dog-parade.png,8,NA,NA,That ,no,1,3IKMEYR0LWJ6VU226WM3KP3TH2JK2D,dogs,Linda,32SVAV9L3GXSRJNSO7SLX51D60HA3P,NA,yes,This one is also in the parade.,predicative,You say to your friend:,33,chihuahua,,NA,NA,graduated_college,A14EYTLSMJRPUK,English,male,,NA,You see a parade of animals.,2,1566415682955,NA,images/chihuahua.png,NA,1, is small.,small,NA,main1
330,NA,Wed Aug 21 2019 11:28:02 GMT-0800 (Alaska Daylight Time),images/bird-parade.png,8,NA,NA,That ,no,1,3IKMEYR0LWJ6VU226WM3KP3TH2JK2D,birds,Linda,32SVAV9L3GXSRJNSO7SLX51D60HA3P,NA,yes,This one is also in the parade.,predicative,You say to your friend:,33,bird,,NA,NA,graduated_college,A14EYTLSMJRPUK,English,male,,NA,You see a parade of animals.,3,1566415682955,NA,images/sparrow.png,NA,1, is small.,small,NA,main1
330,hummingbird,Wed Aug 21 2019 11:28:02 GMT-0800 (Alaska Daylight Time),NA,8,warmup/eagle.jpg,hummingbird,This is a ,no,1,3IKMEYR0LWJ6VU226WM3KP3TH2JK2D,birds,Linda,32SVAV9L3GXSRJNSO7SLX51D60HA3P,eagle,yes,Please label the pictures below.,NA,NA,33,NA,,warmup/colibri.jpg,birds,graduated_college,A14EYTLSMJRPUK,English,male,NA,birds,NA,1,1566415682955,1,NA,This is an ,1,These are both,NA,eagle,warmup2
330,tulip,Wed Aug 21 2019 11:28:02 GMT-0800 (Alaska Daylight Time),NA,8,warmup/peony.png,daisy,This is a ,no,1,3IKMEYR0LWJ6VU226WM3KP3TH2JK2D,flowers,Linda,32SVAV9L3GXSRJNSO7SLX51D60HA3P,peony,yes,Please label the pictures below.,NA,NA,33,NA,,warmup/daisy.png,flowers,graduated_college,A14EYTLSMJRPUK,English,male,NA,flowers,NA,2,1566415682955,1,NA,This is a ,1,These are both,NA,rose,warmup2
330,daisy,Wed Aug 21 2019 11:28:02 GMT-0800 (Alaska Daylight Time),NA,8,warmup/peony.png,daisy,This is a ,no,1,3IKMEYR0LWJ6VU226WM3KP3TH2JK2D,flowers,Linda,32SVAV9L3GXSRJNSO7SLX51D60HA3P,peony,yes,Please label the pictures below.,NA,NA,33,NA,,warmup/daisy.png,flowers,graduated_college,A14EYTLSMJRPUK,English,male,NA,flowers,NA,2,1566415682955,2,NA,This is a ,1,These are both,NA,peony,warmup2
330,swordfish,Wed Aug 21 2019 11:28:02 GMT-0800 (Alaska Daylight Time),NA,8,warmup/goldfish.png,swordfish,This is a ,no,1,3IKMEYR0LWJ6VU226WM3KP3TH2JK2D,fish,Linda,32SVAV9L3GXSRJNSO7SLX51D60HA3P,goldfish,yes,Please label the pictures below.,NA,NA,33,NA,,warmup/swordfish.jpg,fish,graduated_college,A14EYTLSMJRPUK,English,male,NA,fish,NA,3,1566415682955,1,NA,This is a ,1,These are both,NA,goldfish,warmup2
330,NA,Wed Aug 21 2019 11:28:02 GMT-0800 (Alaska Daylight Time),images/bird-parade2.png,8,NA,NA,That ,no,1,3IKMEYR0LWJ6VU226WM3KP3TH2JK2D,birds,Linda,32SVAV9L3GXSRJNSO7SLX51D60HA3P,NA,yes,This one is also in the parade.,predicative,You say to your friend:,33,eagle,,NA,NA,graduated_college,A14EYTLSMJRPUK,English,male,,NA,You see a parade of animals.,1,1566415682955,NA,images/eagle.png,NA,1, is big.,big,NA,main2
330,NA,Wed Aug 21 2019 11:28:02 GMT-0800 (Alaska Daylight Time),images/flower-parade.png,8,NA,NA,That ,no,1,3IKMEYR0LWJ6VU226WM3KP3TH2JK2D,flowers,Linda,32SVAV9L3GXSRJNSO7SLX51D60HA3P,NA,yes,This one is also in the collection.,predicative,You say to your friend:,33,flower,,NA,NA,graduated_college,A14EYTLSMJRPUK,English,male,,NA,You see a collection of plants.,2,1566415682955,NA,images/peony.png,NA,1, is big.,big,NA,main2
330,NA,Wed Aug 21 2019 11:28:02 GMT-0800 (Alaska Daylight Time),images/fish-parade.png,8,NA,NA,That ,no,1,3IKMEYR0LWJ6VU226WM3KP3TH2JK2D,fish,Linda,32SVAV9L3GXSRJNSO7SLX51D60HA3P,NA,yes,This one is also in the parade.,predicative,You say to your friend:,33,swordfish,,NA,NA,graduated_college,A14EYTLSMJRPUK,English,male,,NA,You see a parade of animals.,3,1566415682955,NA,images/swordfish.png,NA,1, is big.,big,NA,main2
328,flower,Wed Aug 21 2019 12:26:12 GMT-0700 (Pacific Daylight Time),NA,8,warmup/sunflower.png,dandelion,This is a ,No,2,3IKMEYR0LWJ6VU226WM3KP3TH2JK2D,flowers,barbara,3C8HJ7UOP8IUED3A6HDZAX1SFC4ZMU,sunflower,yes,Please label the pictures below.,NA,NA,22,NA,,warmup/dandelion.jpg,flowers,graduated_high_school,A3NDPPBACRIXKH,English,male,NA,flowers,NA,1,1566415572163,1,NA,This is a ,1.00,These are both,NA,sunflower,warmup1
328,dandelion,Wed Aug 21 2019 12:26:12 GMT-0700 (Pacific Daylight Time),NA,8,warmup/sunflower.png,dandelion,This is a ,No,2,3IKMEYR0LWJ6VU226WM3KP3TH2JK2D,flowers,barbara,3C8HJ7UOP8IUED3A6HDZAX1SFC4ZMU,sunflower,yes,Please label the pictures below.,NA,NA,22,NA,,warmup/dandelion.jpg,flowers,graduated_high_school,A3NDPPBACRIXKH,English,male,NA,flowers,NA,1,1566415572163,2,NA,This is a ,1.00,These are both,NA,sunflower,warmup1
328,goose,Wed Aug 21 2019 12:26:12 GMT-0700 (Pacific Daylight Time),NA,8,warmup/sparrow.jpg,goose,This is a ,No,2,3IKMEYR0LWJ6VU226WM3KP3TH2JK2D,birds,barbara,3C8HJ7UOP8IUED3A6HDZAX1SFC4ZMU,sparrow,yes,Please label the pictures below.,NA,NA,22,NA,,warmup/goose.png,birds,graduated_high_school,A3NDPPBACRIXKH,English,male,NA,birds,NA,2,1566415572163,1,NA,This is a ,1.00,These are both,NA,bird,warmup1
328,goose,Wed Aug 21 2019 12:26:12 GMT-0700 (Pacific Daylight Time),NA,8,warmup/sparrow.jpg,goose,This is a ,No,2,3IKMEYR0LWJ6VU226WM3KP3TH2JK2D,birds,barbara,3C8HJ7UOP8IUED3A6HDZAX1SFC4ZMU,sparrow,yes,Please label the pictures below.,NA,NA,22,NA,,warmup/goose.png,birds,graduated_high_school,A3NDPPBACRIXKH,English,male,NA,birds,NA,2,1566415572163,2,NA,This is a ,1.00,These are both,NA,sparrow,warmup1
328,swan,Wed Aug 21 2019 12:26:12 GMT-0700 (Pacific Daylight Time),NA,8,warmup/canary.jpg,swan,This is a ,No,2,3IKMEYR0LWJ6VU226WM3KP3TH2JK2D,birds,barbara,3C8HJ7UOP8IUED3A6HDZAX1SFC4ZMU,canary,yes,Please label the pictures below.,NA,NA,22,NA,,warmup/swan.jpg,birds,graduated_high_school,A3NDPPBACRIXKH,English,male,NA,birds,NA,3,1566415572163,1,NA,This is a ,1.00,These are both,NA,songbird,warmup1
328,swan,Wed Aug 21 2019 12:26:12 GMT-0700 (Pacific Daylight Time),NA,8,warmup/canary.jpg,swan,This is a ,No,2,3IKMEYR0LWJ6VU226WM3KP3TH2JK2D,birds,barbara,3C8HJ7UOP8IUED3A6HDZAX1SFC4ZMU,canary,yes,Please label the pictures below.,NA,NA,22,NA,,warmup/swan.jpg,birds,graduated_high_school,A3NDPPBACRIXKH,English,male,NA,birds,NA,3,1566415572163,2,NA,This is a ,1.00,These are both,NA,canary,warmup1
328,NA,Wed Aug 21 2019 12:26:12 GMT-0700 (Pacific Daylight Time),images/bird-parade.png,8,NA,NA,That ,No,2,3IKMEYR0LWJ6VU226WM3KP3TH2JK2D,birds,barbara,3C8HJ7UOP8IUED3A6HDZAX1SFC4ZMU,NA,yes,This one is also in the parade.,predicative,You say to your friend:,22,sparrow,,NA,NA,graduated_high_school,A3NDPPBACRIXKH,English,male,,NA,You see a parade of animals.,1,1566415572163,NA,images/sparrow.png,NA,1.00, is small.,small,NA,main1
328,NA,Wed Aug 21 2019 12:26:12 GMT-0700 (Pacific Daylight Time),images/flower-parade2.png,8,NA,NA,That ,No,2,3IKMEYR0LWJ6VU226WM3KP3TH2JK2D,flowers,barbara,3C8HJ7UOP8IUED3A6HDZAX1SFC4ZMU,NA,yes,This one is also in the collection.,predicative,You say to your friend:,22,sunflower,,NA,NA,graduated_high_school,A3NDPPBACRIXKH,English,male,,NA,You see a collection of plants.,2,1566415572163,NA,images/sunflower.png,NA,1.00, is big.,big,NA,main1
328,NA,Wed Aug 21 2019 12:26:12 GMT-0700 (Pacific Daylight Time),images/bird-parade3.png,8,NA,NA,That ,No,2,3IKMEYR0LWJ6VU226WM3KP3TH2JK2D,birds,barbara,3C8HJ7UOP8IUED3A6HDZAX1SFC4ZMU,NA,yes,This one is also in the parade.,predicative,You say to your friend:,22,swan,,NA,NA,graduated_high_school,A3NDPPBACRIXKH,English,male,,NA,You see a parade of animals.,3,1566415572163,NA,images/swan.png,NA,1.00, is big.,big,NA,main1
328,hummingbird,Wed Aug 21 2019 12:26:12 GMT-0700 (Pacific Daylight Time),NA,8,warmup/eagle.jpg,hummingbird,This is a ,No,2,3IKMEYR0LWJ6VU226WM3KP3TH2JK2D,birds,barbara,3C8HJ7UOP8IUED3A6HDZAX1SFC4ZMU,eagle,yes,Please label the pictures below.,NA,NA,22,NA,,warmup/colibri.jpg,birds,graduated_high_school,A3NDPPBACRIXKH,English,male,NA,birds,NA,1,1566415572163,1,NA,This is an ,1.00,These are both,NA,eagle,warmup2
328,swordfish,Wed Aug 21 2019 12:26:12 GMT-0700 (Pacific Daylight Time),NA,8,warmup/goldfish.png,swordfish,This is a ,No,2,3IKMEYR0LWJ6VU226WM3KP3TH2JK2D,fish,barbara,3C8HJ7UOP8IUED3A6HDZAX1SFC4ZMU,goldfish,yes,Please label the pictures below.,NA,NA,22,NA,,warmup/swordfish.jpg,fish,graduated_high_school,A3NDPPBACRIXKH,English,male,NA,fish,NA,2,1566415572163,1,NA,This is a ,1.00,These are both,NA,goldfish,warmup2
328,chihuahua,Wed Aug 21 2019 12:26:12 GMT-0700 (Pacific Daylight Time),NA,8,warmup/doberman.png,chihuahua,This is a ,No,2,3IKMEYR0LWJ6VU226WM3KP3TH2JK2D,dogs,barbara,3C8HJ7UOP8IUED3A6HDZAX1SFC4ZMU,doberman,yes,Please label the pictures below.,NA,NA,22,NA,,warmup/chihuahua.jpg,dogs,graduated_high_school,A3NDPPBACRIXKH,English,male,NA,dogs,NA,3,1566415572163,1,NA,This is a ,1.00,These are both,NA,doberman,warmup2
328,NA,Wed Aug 21 2019 12:26:12 GMT-0700 (Pacific Daylight Time),images/dog-parade.png,8,NA,NA,That ,No,2,3IKMEYR0LWJ6VU226WM3KP3TH2JK2D,dogs,barbara,3C8HJ7UOP8IUED3A6HDZAX1SFC4ZMU,NA,yes,This one is also in the parade.,predicative,You say to your friend:,22,chihuahua,,NA,NA,graduated_high_school,A3NDPPBACRIXKH,English,male,,NA,You see a parade of animals.,1,1566415572163,NA,images/chihuahua.png,NA,1.00, is small.,small,NA,main2
328,NA,Wed Aug 21 2019 12:26:12 GMT-0700 (Pacific Daylight Time),images/fish-parade.png,8,NA,NA,That ,No,2,3IKMEYR0LWJ6VU226WM3KP3TH2JK2D,fish,barbara,3C8HJ7UOP8IUED3A6HDZAX1SFC4ZMU,NA,yes,This one is also in the parade.,predicative,You say to your friend:,22,goldfish,,NA,NA,graduated_high_school,A3NDPPBACRIXKH,English,male,,NA,You see a parade of animals.,2,1566415572163,NA,images/goldfish.png,NA,1.00, is small.,small,NA,main2
328,NA,Wed Aug 21 2019 12:26:12 GMT-0700 (Pacific Daylight Time),images/bird-parade2.png,8,NA,NA,That ,No,2,3IKMEYR0LWJ6VU226WM3KP3TH2JK2D,birds,barbara,3C8HJ7UOP8IUED3A6HDZAX1SFC4ZMU,NA,yes,This one is also in the parade.,predicative,You say to your friend:,22,eagle,,NA,NA,graduated_high_school,A3NDPPBACRIXKH,English,male,,NA,You see a parade of animals.,3,1566415572163,NA,images/eagle.png,NA,1.00, is big.,big,NA,main2
324,tuna,Wed Aug 21 2019 15:22:08 GMT-0400 (Eastern Daylight Time),NA,8,warmup/clownfish.jpg,tuna,This is a ,no,1,3ZZAYRN1I6FJ5KHUN3YSSTTS1K6OTT,fish,Patricia,3AUQQEL7U6HG2FRTGF1YRUHJOY20VP,clownfish,yes,Please label the pictures below.,NA,NA,33,NA,fun,warmup/tuna.jpg,fish,graduated_high_school,A107RJSS561Y7R,english,male,NA,fish,NA,1,1566415328679,1,NA,This is a ,1.00,These are both,NA,clown,warmup1
324,tuna,Wed Aug 21 2019 15:22:08 GMT-0400 (Eastern Daylight Time),NA,8,warmup/clownfish.jpg,tuna,This is a ,no,1,3ZZAYRN1I6FJ5KHUN3YSSTTS1K6OTT,fish,Patricia,3AUQQEL7U6HG2FRTGF1YRUHJOY20VP,clownfish,yes,Please label the pictures below.,NA,NA,33,NA,fun,warmup/tuna.jpg,fish,graduated_high_school,A107RJSS561Y7R,english,male,NA,fish,NA,1,1566415328679,2,NA,This is a ,1.00,These are both,NA,clownfish,warmup1
324,swan,Wed Aug 21 2019 15:22:08 GMT-0400 (Eastern Daylight Time),NA,8,warmup/canary.jpg,swan,This is a ,no,1,3ZZAYRN1I6FJ5KHUN3YSSTTS1K6OTT,birds,Patricia,3AUQQEL7U6HG2FRTGF1YRUHJOY20VP,canary,yes,Please label the pictures below.,NA,NA,33,NA,fun,warmup/swan.jpg,bird,graduated_high_school,A107RJSS561Y7R,english,male,NA,birds,NA,2,1566415328679,1,NA,This is a ,1.00,These are both,NA,finch,warmup1
324,swan,Wed Aug 21 2019 15:22:08 GMT-0400 (Eastern Daylight Time),NA,8,warmup/canary.jpg,swan,This is a ,no,1,3ZZAYRN1I6FJ5KHUN3YSSTTS1K6OTT,birds,Patricia,3AUQQEL7U6HG2FRTGF1YRUHJOY20VP,canary,yes,Please label the pictures below.,NA,NA,33,NA,fun,warmup/swan.jpg,bird,graduated_high_school,A107RJSS561Y7R,english,male,NA,birds,NA,2,1566415328679,2,NA,This is a ,1.00,These are both,NA,canary,warmup1
324,swan,Wed Aug 21 2019 15:22:08 GMT-0400 (Eastern Daylight Time),NA,8,warmup/canary.jpg,swan,This is a ,no,1,3ZZAYRN1I6FJ5KHUN3YSSTTS1K6OTT,birds,Patricia,3AUQQEL7U6HG2FRTGF1YRUHJOY20VP,canary,yes,Please label the pictures below.,NA,NA,33,NA,fun,warmup/swan.jpg,birds,graduated_high_school,A107RJSS561Y7R,english,male,NA,birds,NA,2,1566415328679,3,NA,This is a ,1.00,These are both,NA,canary,warmup1
324,hummingbird,Wed Aug 21 2019 15:22:08 GMT-0400 (Eastern Daylight Time),NA,8,warmup/eagle.jpg,hummingbird,This is a ,no,1,3ZZAYRN1I6FJ5KHUN3YSSTTS1K6OTT,birds,Patricia,3AUQQEL7U6HG2FRTGF1YRUHJOY20VP,eagle,yes,Please label the pictures below.,NA,NA,33,NA,fun,warmup/colibri.jpg,birds,graduated_high_school,A107RJSS561Y7R,english,male,NA,birds,NA,3,1566415328679,1,NA,This is an ,1.00,These are both,NA,eagle,warmup1
324,NA,Wed Aug 21 2019 15:22:08 GMT-0400 (Eastern Daylight Time),images/fish-parade2.png,8,NA,NA,That ,no,1,3ZZAYRN1I6FJ5KHUN3YSSTTS1K6OTT,fish,Patricia,3AUQQEL7U6HG2FRTGF1YRUHJOY20VP,NA,yes,This one is also in the parade.,predicative,You say to your friend:,33,clownfish,fun,NA,NA,graduated_high_school,A107RJSS561Y7R,english,male,,NA,You see a parade of animals.,1,1566415328679,NA,images/clownfish.png,NA,1.00, is small.,small,NA,main1
324,NA,Wed Aug 21 2019 15:22:08 GMT-0400 (Eastern Daylight Time),images/bird-parade3.png,8,NA,NA,That ,no,1,3ZZAYRN1I6FJ5KHUN3YSSTTS1K6OTT,birds,Patricia,3AUQQEL7U6HG2FRTGF1YRUHJOY20VP,NA,yes,This one is also in the parade.,predicative,You say to your friend:,33,canary,fun,NA,NA,graduated_high_school,A107RJSS561Y7R,english,male,,NA,You see a parade of animals.,2,1566415328679,NA,images/canary.png,NA,1.00, is small.,small,NA,main1
324,NA,Wed Aug 21 2019 15:22:08 GMT-0400 (Eastern Daylight Time),images/bird-parade2.png,8,NA,NA,That ,no,1,3ZZAYRN1I6FJ5KHUN3YSSTTS1K6OTT,birds,Patricia,3AUQQEL7U6HG2FRTGF1YRUHJOY20VP,NA,yes,This one is also in the parade.,predicative,You say to your friend:,33,eagle,fun,NA,NA,graduated_high_school,A107RJSS561Y7R,english,male,,NA,You see a parade of animals.,3,1566415328679,NA,images/eagle.png,NA,1.00, is big.,big,NA,main1
324,pug,Wed Aug 21 2019 15:22:08 GMT-0400 (Eastern Daylight Time),NA,8,warmup/great-dane.jpg,pug,This is a ,no,1,3ZZAYRN1I6FJ5KHUN3YSSTTS1K6OTT,dogs,Patricia,3AUQQEL7U6HG2FRTGF1YRUHJOY20VP,great dane,yes,Please label the pictures below.,NA,NA,33,NA,fun,warmup/pug.jpg,dogs,graduated_high_school,A107RJSS561Y7R,english,male,NA,dogs,NA,1,1566415328679,1,NA,This is a ,1.00,These are both,NA,lab,warmup2
324,pug,Wed Aug 21 2019 15:22:08 GMT-0400 (Eastern Daylight Time),NA,8,warmup/great-dane.jpg,pug,This is a ,no,1,3ZZAYRN1I6FJ5KHUN3YSSTTS1K6OTT,dogs,Patricia,3AUQQEL7U6HG2FRTGF1YRUHJOY20VP,great dane,yes,Please label the pictures below.,NA,NA,33,NA,fun,warmup/pug.jpg,dogs,graduated_high_school,A107RJSS561Y7R,english,male,NA,dogs,NA,1,1566415328679,2,NA,This is a ,1.00,These are both,NA,great dane,warmup2
324,swordfish,Wed Aug 21 2019 15:22:08 GMT-0400 (Eastern Daylight Time),NA,8,warmup/goldfish.png,swordfish,This is a ,no,1,3ZZAYRN1I6FJ5KHUN3YSSTTS1K6OTT,fish,Patricia,3AUQQEL7U6HG2FRTGF1YRUHJOY20VP,goldfish,yes,Please label the pictures below.,NA,NA,33,NA,fun,warmup/swordfish.jpg,fish,graduated_high_school,A107RJSS561Y7R,english,male,NA,fish,NA,2,1566415328679,1,NA,This is a ,1.00,These are both,NA,clownfish,warmup2
324,swordfish,Wed Aug 21 2019 15:22:08 GMT-0400 (Eastern Daylight Time),NA,8,warmup/goldfish.png,swordfish,This is a ,no,1,3ZZAYRN1I6FJ5KHUN3YSSTTS1K6OTT,fish,Patricia,3AUQQEL7U6HG2FRTGF1YRUHJOY20VP,goldfish,yes,Please label the pictures below.,NA,NA,33,NA,fun,warmup/swordfish.jpg,fish,graduated_high_school,A107RJSS561Y7R,english,male,NA,fish,NA,2,1566415328679,2,NA,This is a ,1.00,These are both,NA,goldfish,warmup2
324,dandilion,Wed Aug 21 2019 15:22:08 GMT-0400 (Eastern Daylight Time),NA,8,warmup/peony.png,daisy,This is a ,no,1,3ZZAYRN1I6FJ5KHUN3YSSTTS1K6OTT,flowers,Patricia,3AUQQEL7U6HG2FRTGF1YRUHJOY20VP,peony,yes,Please label the pictures below.,NA,NA,33,NA,fun,warmup/daisy.png,flowers,graduated_high_school,A107RJSS561Y7R,english,male,NA,flowers,NA,3,1566415328679,1,NA,This is a ,1.00,These are both,NA,carnation,warmup2
324,daisy,Wed Aug 21 2019 15:22:08 GMT-0400 (Eastern Daylight Time),NA,8,warmup/peony.png,daisy,This is a ,no,1,3ZZAYRN1I6FJ5KHUN3YSSTTS1K6OTT,flowers,Patricia,3AUQQEL7U6HG2FRTGF1YRUHJOY20VP,peony,yes,Please label the pictures below.,NA,NA,33,NA,fun,warmup/daisy.png,flowers,graduated_high_school,A107RJSS561Y7R,english,male,NA,flowers,NA,3,1566415328679,2,NA,This is a ,1.00,These are both,NA,peony,warmup2
324,NA,Wed Aug 21 2019 15:22:08 GMT-0400 (Eastern Daylight Time),images/fish-parade.png,8,NA,NA,That ,no,1,3ZZAYRN1I6FJ5KHUN3YSSTTS1K6OTT,fish,Patricia,3AUQQEL7U6HG2FRTGF1YRUHJOY20VP,NA,yes,This one is also in the parade.,predicative,You say to your friend:,33,swordfish,fun,NA,NA,graduated_high_school,A107RJSS561Y7R,english,male,,NA,You see a parade of animals.,1,1566415328679,NA,images/swordfish.png,NA,1.00, is big.,big,NA,main2
324,NA,Wed Aug 21 2019 15:22:08 GMT-0400 (Eastern Daylight Time),images/flower-parade.png,8,NA,NA,That ,no,1,3ZZAYRN1I6FJ5KHUN3YSSTTS1K6OTT,flowers,Patricia,3AUQQEL7U6HG2FRTGF1YRUHJOY20VP,NA,yes,This one is also in the collection.,predicative,You say to your friend:,33,daisy,fun,NA,NA,graduated_high_school,A107RJSS561Y7R,english,male,,NA,You see a collection of plants.,2,1566415328679,NA,images/daisy.png,NA,1.00, is small.,small,NA,main2
324,NA,Wed Aug 21 2019 15:22:08 GMT-0400 (Eastern Daylight Time),images/dog-parade2.png,8,NA,NA,That ,no,1,3ZZAYRN1I6FJ5KHUN3YSSTTS1K6OTT,dogs,Patricia,3AUQQEL7U6HG2FRTGF1YRUHJOY20VP,NA,yes,This one is also in the parade.,predicative,You say to your friend:,33,great dane,fun,NA,NA,graduated_high_school,A107RJSS561Y7R,english,male,,NA,You see a parade of animals.,3,1566415328679,NA,images/great-dane.png,NA,1.00, is big.,big,NA,main2
321,dog,Wed Aug 21 2019 15:08:27 GMT-0400 (Eastern Daylight Time),NA,8,warmup/great-dane.jpg,pug,This is a ,No,1,3W0XM68YZPJZ69K6NSMPF6TOPW5K1W,dogs,jessica,3U84XHCDID1EANE40DD3O3KSTLK4Z5,great dane,yes,Please label the pictures below.,NA,NA,36,NA,No comment.,warmup/pug.jpg,dogs,graduated_college,A37S96RT1P1IT2,English,female,NA,dogs,NA,1,1566414507527,1,NA,This is a ,1.00,These are both,NA,dog,warmup1
321,pug,Wed Aug 21 2019 15:08:27 GMT-0400 (Eastern Daylight Time),NA,8,warmup/great-dane.jpg,pug,This is a ,No,1,3W0XM68YZPJZ69K6NSMPF6TOPW5K1W,dogs,jessica,3U84XHCDID1EANE40DD3O3KSTLK4Z5,great dane,yes,Please label the pictures below.,NA,NA,36,NA,No comment.,warmup/pug.jpg,dogs,graduated_college,A37S96RT1P1IT2,English,female,NA,dogs,NA,1,1566414507527,2,NA,This is a ,1.00,These are both,NA,great dane,warmup1
321,goose,Wed Aug 21 2019 15:08:27 GMT-0400 (Eastern Daylight Time),NA,8,warmup/sparrow.jpg,goose,This is a ,No,1,3W0XM68YZPJZ69K6NSMPF6TOPW5K1W,birds,jessica,3U84XHCDID1EANE40DD3O3KSTLK4Z5,sparrow,yes,Please label the pictures below.,NA,NA,36,NA,No comment.,warmup/goose.png,birds,graduated_college,A37S96RT1P1IT2,English,female,NA,birds,NA,2,1566414507527,1,NA,This is a ,1.00,These are both,NA,sparrow,warmup1
321,marlin,Wed Aug 21 2019 15:08:27 GMT-0400 (Eastern Daylight Time),NA,8,warmup/goldfish.png,swordfish,This is a ,No,1,3W0XM68YZPJZ69K6NSMPF6TOPW5K1W,fish,jessica,3U84XHCDID1EANE40DD3O3KSTLK4Z5,goldfish,yes,Please label the pictures below.,NA,NA,36,NA,No comment.,warmup/swordfish.jpg,fish,graduated_college,A37S96RT1P1IT2,English,female,NA,fish,NA,3,1566414507527,1,NA,This is a ,1.00,These are both,NA,goldfish,warmup1
321,swordfish,Wed Aug 21 2019 15:08:27 GMT-0400 (Eastern Daylight Time),NA,8,warmup/goldfish.png,swordfish,This is a ,No,1,3W0XM68YZPJZ69K6NSMPF6TOPW5K1W,fish,jessica,3U84XHCDID1EANE40DD3O3KSTLK4Z5,goldfish,yes,Please label the pictures below.,NA,NA,36,NA,No comment.,warmup/swordfish.jpg,fish,graduated_college,A37S96RT1P1IT2,English,female,NA,fish,NA,3,1566414507527,2,NA,This is a ,1.00,These are both,NA,goldfish,warmup1
321,NA,Wed Aug 21 2019 15:08:27 GMT-0400 (Eastern Daylight Time),images/fish-parade.png,8,NA,NA,That ,No,1,3W0XM68YZPJZ69K6NSMPF6TOPW5K1W,fish,jessica,3U84XHCDID1EANE40DD3O3KSTLK4Z5,NA,yes,This one is also in the parade.,predicative,You say to your friend:,36,fish,No comment.,NA,NA,graduated_college,A37S96RT1P1IT2,English,female,,NA,You see a parade of animals.,1,1566414507527,NA,images/goldfish.png,NA,1.00, is small.,small,NA,main1
321,NA,Wed Aug 21 2019 15:08:27 GMT-0400 (Eastern Daylight Time),images/dog-parade2.png,8,NA,NA,That ,No,1,3W0XM68YZPJZ69K6NSMPF6TOPW5K1W,dogs,jessica,3U84XHCDID1EANE40DD3O3KSTLK4Z5,NA,yes,This one is also in the parade.,predicative,You say to your friend:,36,dog,No comment.,NA,NA,graduated_college,A37S96RT1P1IT2,English,female,,NA,You see a parade of animals.,2,1566414507527,NA,images/great-dane.png,NA,1.00, is big.,big,NA,main1
321,NA,Wed Aug 21 2019 15:08:27 GMT-0400 (Eastern Daylight Time),images/bird-parade.png,8,NA,NA,That ,No,1,3W0XM68YZPJZ69K6NSMPF6TOPW5K1W,birds,jessica,3U84XHCDID1EANE40DD3O3KSTLK4Z5,NA,yes,This one is also in the parade.,predicative,You say to your friend:,36,bird,No comment.,NA,NA,graduated_college,A37S96RT1P1IT2,English,female,,NA,You see a parade of animals.,3,1566414507527,NA,images/sparrow.png,NA,1.00, is small.,small,NA,main1
321,swan,Wed Aug 21 2019 15:08:27 GMT-0400 (Eastern Daylight Time),NA,8,warmup/canary.jpg,swan,This is a ,No,1,3W0XM68YZPJZ69K6NSMPF6TOPW5K1W,birds,jessica,3U84XHCDID1EANE40DD3O3KSTLK4Z5,canary,yes,Please label the pictures below.,NA,NA,36,NA,No comment.,warmup/swan.jpg,birds,graduated_college,A37S96RT1P1IT2,English,female,NA,birds,NA,1,1566414507527,1,NA,This is a ,1.00,These are both,NA,canary,warmup2
321,hummingbird,Wed Aug 21 2019 15:08:27 GMT-0400 (Eastern Daylight Time),NA,8,warmup/eagle.jpg,hummingbird,This is a ,No,1,3W0XM68YZPJZ69K6NSMPF6TOPW5K1W,birds,jessica,3U84XHCDID1EANE40DD3O3KSTLK4Z5,eagle,yes,Please label the pictures below.,NA,NA,36,NA,No comment.,warmup/colibri.jpg,birds,graduated_college,A37S96RT1P1IT2,English,female,NA,birds,NA,2,1566414507527,1,NA,This is an ,1.00,These are both,NA,eagle,warmup2
321,tuna,Wed Aug 21 2019 15:08:27 GMT-0400 (Eastern Daylight Time),NA,8,warmup/clownfish.jpg,tuna,This is a ,No,1,3W0XM68YZPJZ69K6NSMPF6TOPW5K1W,fish,jessica,3U84XHCDID1EANE40DD3O3KSTLK4Z5,clownfish,yes,Please label the pictures below.,NA,NA,36,NA,No comment.,warmup/tuna.jpg,fish,graduated_college,A37S96RT1P1IT2,English,female,NA,fish,NA,3,1566414507527,1,NA,This is a ,1.00,These are both,NA,clownfish,warmup2
321,NA,Wed Aug 21 2019 15:08:27 GMT-0400 (Eastern Daylight Time),images/fish-parade2.png,8,NA,NA,That ,No,1,3W0XM68YZPJZ69K6NSMPF6TOPW5K1W,fish,jessica,3U84XHCDID1EANE40DD3O3KSTLK4Z5,NA,yes,This one is also in the parade.,predicative,You say to your friend:,36,fish,No comment.,NA,NA,graduated_college,A37S96RT1P1IT2,English,female,,NA,You see a parade of animals.,1,1566414507527,NA,images/tuna.png,NA,1.00, is big.,big,NA,main2
321,NA,Wed Aug 21 2019 15:08:27 GMT-0400 (Eastern Daylight Time),images/bird-parade3.png,8,NA,NA,That ,No,1,3W0XM68YZPJZ69K6NSMPF6TOPW5K1W,birds,jessica,3U84XHCDID1EANE40DD3O3KSTLK4Z5,NA,yes,This one is also in the parade.,predicative,You say to your friend:,36,bird,No comment.,NA,NA,graduated_college,A37S96RT1P1IT2,English,female,,NA,You see a parade of animals.,2,1566414507527,NA,images/canary.png,NA,1.00, is small.,small,NA,main2
321,NA,Wed Aug 21 2019 15:08:27 GMT-0400 (Eastern Daylight Time),images/bird-parade2.png,8,NA,NA,That ,No,1,3W0XM68YZPJZ69K6NSMPF6TOPW5K1W,birds,jessica,3U84XHCDID1EANE40DD3O3KSTLK4Z5,NA,yes,This one is also in the parade.,predicative,You say to your friend:,36,bird,No comment.,NA,NA,graduated_college,A37S96RT1P1IT2,English,female,,NA,You see a parade of animals.,3,1566414507527,NA,images/eagle.png,NA,1.00, is big.,big,NA,main2
320,pug,Wed Aug 21 2019 15:08:22 GMT-0400 (Eastern Daylight Time),NA,8,warmup/great-dane.jpg,pug,This is a ,,1,3ZZAYRN1I6FJ5KHUN3YSSTTS1K6OTT,dogs,jennifer,3TS1AR6UQR25OT5N1ZH3ONOK8IGF7C,great dane,,Please label the pictures below.,NA,NA,,NA,,warmup/pug.jpg,dogs,graduated_college,A1ZN6V0PU8VVAH,English,male,NA,dogs,NA,1,1566414502021,1,NA,This is a ,.75,These are both,NA,great dane,warmup1
320,hummingbird,Wed Aug 21 2019 15:08:22 GMT-0400 (Eastern Daylight Time),NA,8,warmup/eagle.jpg,hummingbird,This is a ,,1,3ZZAYRN1I6FJ5KHUN3YSSTTS1K6OTT,birds,jennifer,3TS1AR6UQR25OT5N1ZH3ONOK8IGF7C,eagle,,Please label the pictures below.,NA,NA,,NA,,warmup/colibri.jpg,birds,graduated_college,A1ZN6V0PU8VVAH,English,male,NA,birds,NA,2,1566414502021,1,NA,This is an ,.75,These are both,NA,eagle,warmup1
320,dandelion,Wed Aug 21 2019 15:08:22 GMT-0400 (Eastern Daylight Time),NA,8,warmup/sunflower.png,dandelion,This is a ,,1,3ZZAYRN1I6FJ5KHUN3YSSTTS1K6OTT,flowers,jennifer,3TS1AR6UQR25OT5N1ZH3ONOK8IGF7C,sunflower,,Please label the pictures below.,NA,NA,,NA,,warmup/dandelion.jpg,flowers,graduated_college,A1ZN6V0PU8VVAH,English,male,NA,flowers,NA,3,1566414502021,1,NA,This is a ,.75,These are both,NA,sunflower,warmup1
320,NA,Wed Aug 21 2019 15:08:22 GMT-0400 (Eastern Daylight Time),images/bird-parade2.png,8,NA,NA,That ,,1,3ZZAYRN1I6FJ5KHUN3YSSTTS1K6OTT,birds,jennifer,3TS1AR6UQR25OT5N1ZH3ONOK8IGF7C,NA,,This one is also in the parade.,predicative,You say to your friend:,,eagle,,NA,NA,graduated_college,A1ZN6V0PU8VVAH,English,male,,NA,You see a parade of animals.,1,1566414502021,NA,images/eagle.png,NA,.75, is big.,big,NA,main1
320,NA,Wed Aug 21 2019 15:08:22 GMT-0400 (Eastern Daylight Time),images/dog-parade2.png,8,NA,NA,That ,,1,3ZZAYRN1I6FJ5KHUN3YSSTTS1K6OTT,dogs,jennifer,3TS1AR6UQR25OT5N1ZH3ONOK8IGF7C,NA,,This one is also in the parade.,predicative,You say to your friend:,,pug,,NA,NA,graduated_college,A1ZN6V0PU8VVAH,English,male,,NA,You see a parade of animals.,2,1566414502021,NA,images/pug.png,NA,.75, is small.,small,NA,main1
320,NA,Wed Aug 21 2019 15:08:22 GMT-0400 (Eastern Daylight Time),images/flower-parade2.png,8,NA,NA,That ,,1,3ZZAYRN1I6FJ5KHUN3YSSTTS1K6OTT,flowers,jennifer,3TS1AR6UQR25OT5N1ZH3ONOK8IGF7C,NA,,This one is also in the collection.,predicative,You say to your friend:,,sunflower,,NA,NA,graduated_college,A1ZN6V0PU8VVAH,English,male,,NA,You see a collection of plants.,3,1566414502021,NA,images/sunflower.png,NA,.75, is big.,big,NA,main1
320,swan,Wed Aug 21 2019 15:08:22 GMT-0400 (Eastern Daylight Time),NA,8,warmup/canary.jpg,swan,This is a ,,1,3ZZAYRN1I6FJ5KHUN3YSSTTS1K6OTT,birds,jennifer,3TS1AR6UQR25OT5N1ZH3ONOK8IGF7C,canary,,Please label the pictures below.,NA,NA,,NA,,warmup/swan.jpg,birds,graduated_college,A1ZN6V0PU8VVAH,English,male,NA,birds,NA,1,1566414502021,1,NA,This is a ,.75,These are both,NA,finch,warmup2
320,swan,Wed Aug 21 2019 15:08:22 GMT-0400 (Eastern Daylight Time),NA,8,warmup/canary.jpg,swan,This is a ,,1,3ZZAYRN1I6FJ5KHUN3YSSTTS1K6OTT,birds,jennifer,3TS1AR6UQR25OT5N1ZH3ONOK8IGF7C,canary,,Please label the pictures below.,NA,NA,,NA,,warmup/swan.jpg,birds,graduated_college,A1ZN6V0PU8VVAH,English,male,NA,birds,NA,1,1566414502021,2,NA,This is a ,.75,These are both,NA,canary,warmup2
320,goose,Wed Aug 21 2019 15:08:22 GMT-0400 (Eastern Daylight Time),NA,8,warmup/sparrow.jpg,goose,This is a ,,1,3ZZAYRN1I6FJ5KHUN3YSSTTS1K6OTT,birds,jennifer,3TS1AR6UQR25OT5N1ZH3ONOK8IGF7C,sparrow,,Please label the pictures below.,NA,NA,,NA,,warmup/goose.png,birds,graduated_college,A1ZN6V0PU8VVAH,English,male,NA,birds,NA,2,1566414502021,1,NA,This is a ,.75,These are both,NA,swallow,warmup2
320,goose,Wed Aug 21 2019 15:08:22 GMT-0400 (Eastern Daylight Time),NA,8,warmup/sparrow.jpg,goose,This is a ,,1,3ZZAYRN1I6FJ5KHUN3YSSTTS1K6OTT,birds,jennifer,3TS1AR6UQR25OT5N1ZH3ONOK8IGF7C,sparrow,,Please label the pictures below.,NA,NA,,NA,,warmup/goose.png,birds,graduated_college,A1ZN6V0PU8VVAH,English,male,NA,birds,NA,2,1566414502021,2,NA,This is a ,.75,These are both,NA,sparrow,warmup2
320,chihuaha,Wed Aug 21 2019 15:08:22 GMT-0400 (Eastern Daylight Time),NA,8,warmup/doberman.png,chihuahua,This is a ,,1,3ZZAYRN1I6FJ5KHUN3YSSTTS1K6OTT,dogs,jennifer,3TS1AR6UQR25OT5N1ZH3ONOK8IGF7C,doberman,,Please label the pictures below.,NA,NA,,NA,,warmup/chihuahua.jpg,dogs,graduated_college,A1ZN6V0PU8VVAH,English,male,NA,dogs,NA,3,1566414502021,1,NA,This is a ,.75,These are both,NA,doberman,warmup2
320,chihuahua,Wed Aug 21 2019 15:08:22 GMT-0400 (Eastern Daylight Time),NA,8,warmup/doberman.png,chihuahua,This is a ,,1,3ZZAYRN1I6FJ5KHUN3YSSTTS1K6OTT,dogs,jennifer,3TS1AR6UQR25OT5N1ZH3ONOK8IGF7C,doberman,,Please label the pictures below.,NA,NA,,NA,,warmup/chihuahua.jpg,dogs,graduated_college,A1ZN6V0PU8VVAH,English,male,NA,dogs,NA,3,1566414502021,2,NA,This is a ,.75,These are both,NA,doberman,warmup2
320,NA,Wed Aug 21 2019 15:08:22 GMT-0400 (Eastern Daylight Time),images/bird-parade3.png,8,NA,NA,That ,,1,3ZZAYRN1I6FJ5KHUN3YSSTTS1K6OTT,birds,jennifer,3TS1AR6UQR25OT5N1ZH3ONOK8IGF7C,NA,,This one is also in the parade.,predicative,You say to your friend:,,swan,,NA,NA,graduated_college,A1ZN6V0PU8VVAH,English,male,,NA,You see a parade of animals.,1,1566414502021,NA,images/swan.png,NA,.75, is big.,big,NA,main2
320,NA,Wed Aug 21 2019 15:08:22 GMT-0400 (Eastern Daylight Time),images/bird-parade.png,8,NA,NA,That ,,1,3ZZAYRN1I6FJ5KHUN3YSSTTS1K6OTT,birds,jennifer,3TS1AR6UQR25OT5N1ZH3ONOK8IGF7C,NA,,This one is also in the parade.,predicative,You say to your friend:,,sparrow,,NA,NA,graduated_college,A1ZN6V0PU8VVAH,English,male,,NA,You see a parade of animals.,2,1566414502021,NA,images/sparrow.png,NA,.75, is small.,small,NA,main2
320,NA,Wed Aug 21 2019 15:08:22 GMT-0400 (Eastern Daylight Time),images/dog-parade.png,8,NA,NA,That ,,1,3ZZAYRN1I6FJ5KHUN3YSSTTS1K6OTT,dogs,jennifer,3TS1AR6UQR25OT5N1ZH3ONOK8IGF7C,NA,,This one is also in the parade.,predicative,You say to your friend:,,chihuahua,,NA,NA,graduated_college,A1ZN6V0PU8VVAH,English,male,,NA,You see a parade of animals.,3,1566414502021,NA,images/chihuahua.png,NA,.75, is small.,small,NA,main2
319,trout,Wed Aug 21 2019 14:06:13 GMT-0500 (Central Daylight Time),NA,8,warmup/clownfish.jpg,tuna,This is a ,no,1,3W0XM68YZPJZ69K6NSMPF6TOPW5K1W,fish,Patricia,3XXU1SWE8NJWAROV5KA2V7363OXA0U,clownfish,yes,Please label the pictures below.,NA,NA,36,NA,,warmup/tuna.jpg,fish,graduated_college,AJW3PL5UDH4BP,English,male,NA,fish,NA,1,1566414373668,1,NA,This is a ,1.00,These are both,NA,goldfish,warmup1
319,tuna,Wed Aug 21 2019 14:06:13 GMT-0500 (Central Daylight Time),NA,8,warmup/clownfish.jpg,tuna,This is a ,no,1,3W0XM68YZPJZ69K6NSMPF6TOPW5K1W,fish,Patricia,3XXU1SWE8NJWAROV5KA2V7363OXA0U,clownfish,yes,Please label the pictures below.,NA,NA,36,NA,,warmup/tuna.jpg,fish,graduated_college,AJW3PL5UDH4BP,English,male,NA,fish,NA,1,1566414373668,2,NA,This is a ,1.00,These are both,NA,clownfish,warmup1
319,hummingbird,Wed Aug 21 2019 14:06:13 GMT-0500 (Central Daylight Time),NA,8,warmup/eagle.jpg,hummingbird,This is a ,no,1,3W0XM68YZPJZ69K6NSMPF6TOPW5K1W,birds,Patricia,3XXU1SWE8NJWAROV5KA2V7363OXA0U,eagle,yes,Please label the pictures below.,NA,NA,36,NA,,warmup/colibri.jpg,birds,graduated_college,AJW3PL5UDH4BP,English,male,NA,birds,NA,2,1566414373668,1,NA,This is an ,1.00,These are both,NA,eagle,warmup1
319,goose,Wed Aug 21 2019 14:06:13 GMT-0500 (Central Daylight Time),NA,8,warmup/sparrow.jpg,goose,This is a ,no,1,3W0XM68YZPJZ69K6NSMPF6TOPW5K1W,birds,Patricia,3XXU1SWE8NJWAROV5KA2V7363OXA0U,sparrow,yes,Please label the pictures below.,NA,NA,36,NA,,warmup/goose.png,birds,graduated_college,AJW3PL5UDH4BP,English,male,NA,birds,NA,3,1566414373668,1,NA,This is a ,1.00,These are both,NA,bird,warmup1
319,goose,Wed Aug 21 2019 14:06:13 GMT-0500 (Central Daylight Time),NA,8,warmup/sparrow.jpg,goose,This is a ,no,1,3W0XM68YZPJZ69K6NSMPF6TOPW5K1W,birds,Patricia,3XXU1SWE8NJWAROV5KA2V7363OXA0U,sparrow,yes,Please label the pictures below.,NA,NA,36,NA,,warmup/goose.png,birds,graduated_college,AJW3PL5UDH4BP,English,male,NA,birds,NA,3,1566414373668,2,NA,This is a ,1.00,These are both,NA,sparrow,warmup1
319,NA,Wed Aug 21 2019 14:06:13 GMT-0500 (Central Daylight Time),images/fish-parade2.png,8,NA,NA,That ,no,1,3W0XM68YZPJZ69K6NSMPF6TOPW5K1W,fish,Patricia,3XXU1SWE8NJWAROV5KA2V7363OXA0U,NA,yes,This one is also in the parade.,predicative,You say to your friend:,36,clownfish,,NA,NA,graduated_college,AJW3PL5UDH4BP,English,male,,NA,You see a parade of animals.,1,1566414373668,NA,images/clownfish.png,NA,1.00, is small.,small,NA,main1
319,NA,Wed Aug 21 2019 14:06:13 GMT-0500 (Central Daylight Time),images/bird-parade.png,8,NA,NA,That ,no,1,3W0XM68YZPJZ69K6NSMPF6TOPW5K1W,birds,Patricia,3XXU1SWE8NJWAROV5KA2V7363OXA0U,NA,yes,This one is also in the parade.,predicative,You say to your friend:,36,goose,,NA,NA,graduated_college,AJW3PL5UDH4BP,English,male,,NA,You see a parade of animals.,2,1566414373668,NA,images/goose.png,NA,1.00, is big.,big,NA,main1
319,NA,Wed Aug 21 2019 14:06:13 GMT-0500 (Central Daylight Time),images/bird-parade2.png,8,NA,NA,That ,no,1,3W0XM68YZPJZ69K6NSMPF6TOPW5K1W,birds,Patricia,3XXU1SWE8NJWAROV5KA2V7363OXA0U,NA,yes,This one is also in the parade.,predicative,You say to your friend:,36,hummingbird,,NA,NA,graduated_college,AJW3PL5UDH4BP,English,male,,NA,You see a parade of animals.,3,1566414373668,NA,images/hummingbird.png,NA,1.00, is small.,small,NA,main1
319,oak,Wed Aug 21 2019 14:06:13 GMT-0500 (Central Daylight Time),NA,8,warmup/bonsai.jpg,redwood|sequoia,This is a ,no,1,3W0XM68YZPJZ69K6NSMPF6TOPW5K1W,trees,Patricia,3XXU1SWE8NJWAROV5KA2V7363OXA0U,bonsai,yes,Please label the pictures below.,NA,NA,36,NA,,warmup/sequoia.jpg,trees,graduated_college,AJW3PL5UDH4BP,English,male,NA,trees,NA,1,1566414373668,1,NA,This is a ,1.00,These are both,NA,banzi,warmup2
319,redwood,Wed Aug 21 2019 14:06:13 GMT-0500 (Central Daylight Time),NA,8,warmup/bonsai.jpg,redwood|sequoia,This is a ,no,1,3W0XM68YZPJZ69K6NSMPF6TOPW5K1W,trees,Patricia,3XXU1SWE8NJWAROV5KA2V7363OXA0U,bonsai,yes,Please label the pictures below.,NA,NA,36,NA,,warmup/sequoia.jpg,trees,graduated_college,AJW3PL5UDH4BP,English,male,NA,trees,NA,1,1566414373668,2,NA,This is a ,1.00,These are both,NA,bonsai,warmup2
319,dandelion,Wed Aug 21 2019 14:06:13 GMT-0500 (Central Daylight Time),NA,8,warmup/sunflower.png,dandelion,This is a ,no,1,3W0XM68YZPJZ69K6NSMPF6TOPW5K1W,flowers,Patricia,3XXU1SWE8NJWAROV5KA2V7363OXA0U,sunflower,yes,Please label the pictures below.,NA,NA,36,NA,,warmup/dandelion.jpg,flowers,graduated_college,AJW3PL5UDH4BP,English,male,NA,flowers,NA,2,1566414373668,1,NA,This is a ,1.00,These are both,NA,sunflower,warmup2
319,dandelion,Wed Aug 21 2019 14:06:13 GMT-0500 (Central Daylight Time),NA,8,warmup/peony.png,daisy,This is a ,no,1,3W0XM68YZPJZ69K6NSMPF6TOPW5K1W,flowers,Patricia,3XXU1SWE8NJWAROV5KA2V7363OXA0U,peony,yes,Please label the pictures below.,NA,NA,36,NA,,warmup/daisy.png,flowers,graduated_college,AJW3PL5UDH4BP,English,male,NA,flowers,NA,3,1566414373668,1,NA,This is a ,1.00,These are both,NA,rose,warmup2
319,daisy,Wed Aug 21 2019 14:06:13 GMT-0500 (Central Daylight Time),NA,8,warmup/peony.png,daisy,This is a ,no,1,3W0XM68YZPJZ69K6NSMPF6TOPW5K1W,flowers,Patricia,3XXU1SWE8NJWAROV5KA2V7363OXA0U,peony,yes,Please label the pictures below.,NA,NA,36,NA,,warmup/daisy.png,flowers,graduated_college,AJW3PL5UDH4BP,English,male,NA,flowers,NA,3,1566414373668,2,NA,This is a ,1.00,These are both,NA,peony,warmup2
319,NA,Wed Aug 21 2019 14:06:13 GMT-0500 (Central Daylight Time),images/flower-parade2.png,8,NA,NA,That ,no,1,3W0XM68YZPJZ69K6NSMPF6TOPW5K1W,flowers,Patricia,3XXU1SWE8NJWAROV5KA2V7363OXA0U,NA,yes,This one is also in the collection.,predicative,You say to your friend:,36,sunflower,,NA,NA,graduated_college,AJW3PL5UDH4BP,English,male,,NA,You see a collection of plants.,1,1566414373668,NA,images/sunflower.png,NA,1.00, is big.,big,NA,main2
319,NA,Wed Aug 21 2019 14:06:13 GMT-0500 (Central Daylight Time),images/tree-parade.png,8,NA,NA,That ,no,1,3W0XM68YZPJZ69K6NSMPF6TOPW5K1W,trees,Patricia,3XXU1SWE8NJWAROV5KA2V7363OXA0U,NA,yes,This one is also in the landscape.,predicative,You say to your friend:,36,redwood,,NA,NA,graduated_college,AJW3PL5UDH4BP,English,male,,NA,You see the following items in a landscape.,2,1566414373668,NA,images/sequoia.png,NA,1.00, is big.,big,NA,main2
319,NA,Wed Aug 21 2019 14:06:13 GMT-0500 (Central Daylight Time),images/flower-parade.png,8,NA,NA,That ,no,1,3W0XM68YZPJZ69K6NSMPF6TOPW5K1W,flowers,Patricia,3XXU1SWE8NJWAROV5KA2V7363OXA0U,NA,yes,This one is also in the collection.,predicative,You say to your friend:,36,flower,,NA,NA,graduated_college,AJW3PL5UDH4BP,English,male,,NA,You see a collection of plants.,3,1566414373668,NA,images/daisy.png,NA,1.00, is small.,small,NA,main2
318,hummingbird,Wed Aug 21 2019 15:05:54 GMT-0400 (Eastern Daylight Time),NA,8,warmup/eagle.jpg,hummingbird,This is a ,,2,3IKMEYR0LWJ6VU226WM3KP3TH2JK2D,birds,margaret,3ON104KXQLKAGS9ZPQTWPZQACJG4WF,eagle,yes,Please label the pictures below.,NA,NA,31,NA,,warmup/colibri.jpg,birds,graduated_college,A3C0NQ2IP5FTZQ,English,male,NA,birds,NA,1,1566414354828,1,NA,This is an ,1,These are both,NA,eagle,warmup1
318,swordfish,Wed Aug 21 2019 15:05:54 GMT-0400 (Eastern Daylight Time),NA,8,warmup/goldfish.png,swordfish,This is a ,,2,3IKMEYR0LWJ6VU226WM3KP3TH2JK2D,fish,margaret,3ON104KXQLKAGS9ZPQTWPZQACJG4WF,goldfish,yes,Please label the pictures below.,NA,NA,31,NA,,warmup/swordfish.jpg,fish,graduated_college,A3C0NQ2IP5FTZQ,English,male,NA,fish,NA,2,1566414354828,1,NA,This is a ,1,These are both,NA,goldfish,warmup1
318,daisy,Wed Aug 21 2019 15:05:54 GMT-0400 (Eastern Daylight Time),NA,8,warmup/peony.png,daisy,This is a ,,2,3IKMEYR0LWJ6VU226WM3KP3TH2JK2D,flowers,margaret,3ON104KXQLKAGS9ZPQTWPZQACJG4WF,peony,yes,Please label the pictures below.,NA,NA,31,NA,,warmup/daisy.png,flowers,graduated_college,A3C0NQ2IP5FTZQ,English,male,NA,flowers,NA,3,1566414354828,1,NA,This is a ,1,These are both,NA,rose,warmup1
318,daisy,Wed Aug 21 2019 15:05:54 GMT-0400 (Eastern Daylight Time),NA,8,warmup/peony.png,daisy,This is a ,,2,3IKMEYR0LWJ6VU226WM3KP3TH2JK2D,flowers,margaret,3ON104KXQLKAGS9ZPQTWPZQACJG4WF,peony,yes,Please label the pictures below.,NA,NA,31,NA,,warmup/daisy.png,flowers,graduated_college,A3C0NQ2IP5FTZQ,English,male,NA,flowers,NA,3,1566414354828,2,NA,This is a ,1,These are both,NA,peony,warmup1
318,NA,Wed Aug 21 2019 15:05:54 GMT-0400 (Eastern Daylight Time),images/bird-parade2.png,8,NA,NA,That ,,2,3IKMEYR0LWJ6VU226WM3KP3TH2JK2D,birds,margaret,3ON104KXQLKAGS9ZPQTWPZQACJG4WF,NA,yes,This one is also in the parade.,predicative,You say to your friend:,31,eagle,,NA,NA,graduated_college,A3C0NQ2IP5FTZQ,English,male,,NA,You see a parade of animals.,1,1566414354828,NA,images/eagle.png,NA,1, is big.,big,NA,main1
318,NA,Wed Aug 21 2019 15:05:54 GMT-0400 (Eastern Daylight Time),images/fish-parade.png,8,NA,NA,That ,,2,3IKMEYR0LWJ6VU226WM3KP3TH2JK2D,fish,margaret,3ON104KXQLKAGS9ZPQTWPZQACJG4WF,NA,yes,This one is also in the parade.,predicative,You say to your friend:,31,swordfish,,NA,NA,graduated_college,A3C0NQ2IP5FTZQ,English,male,,NA,You see a parade of animals.,2,1566414354828,NA,images/swordfish.png,NA,1, is big.,big,NA,main1
318,NA,Wed Aug 21 2019 15:05:54 GMT-0400 (Eastern Daylight Time),images/flower-parade.png,8,NA,NA,That ,,2,3IKMEYR0LWJ6VU226WM3KP3TH2JK2D,flowers,margaret,3ON104KXQLKAGS9ZPQTWPZQACJG4WF,NA,yes,This one is also in the collection.,predicative,You say to your friend:,31,daisy,,NA,NA,graduated_college,A3C0NQ2IP5FTZQ,English,male,,NA,You see a collection of plants.,3,1566414354828,NA,images/daisy.png,NA,1, is small.,small,NA,main1
318,tree,Wed Aug 21 2019 15:05:54 GMT-0400 (Eastern Daylight Time),NA,8,warmup/bonsai.jpg,redwood|sequoia,This is a ,,2,3IKMEYR0LWJ6VU226WM3KP3TH2JK2D,trees,margaret,3ON104KXQLKAGS9ZPQTWPZQACJG4WF,bonsai,yes,Please label the pictures below.,NA,NA,31,NA,,warmup/sequoia.jpg,trees,graduated_college,A3C0NQ2IP5FTZQ,English,male,NA,trees,NA,1,1566414354828,1,NA,This is a ,1,These are both,NA,tree,warmup2
318,"redwood,sequoia",Wed Aug 21 2019 15:05:54 GMT-0400 (Eastern Daylight Time),NA,8,warmup/bonsai.jpg,redwood|sequoia,This is a ,,2,3IKMEYR0LWJ6VU226WM3KP3TH2JK2D,trees,margaret,3ON104KXQLKAGS9ZPQTWPZQACJG4WF,bonsai,yes,Please label the pictures below.,NA,NA,31,NA,,warmup/sequoia.jpg,trees,graduated_college,A3C0NQ2IP5FTZQ,English,male,NA,trees,NA,1,1566414354828,2,NA,This is a ,1,These are both,NA,bonsai,warmup2
318,"redwood,sequoia",Wed Aug 21 2019 15:05:54 GMT-0400 (Eastern Daylight Time),NA,8,warmup/bonsai.jpg,redwood|sequoia,This is a ,,2,3IKMEYR0LWJ6VU226WM3KP3TH2JK2D,trees,margaret,3ON104KXQLKAGS9ZPQTWPZQACJG4WF,bonsai,yes,Please label the pictures below.,NA,NA,31,NA,,warmup/sequoia.jpg,trees,graduated_college,A3C0NQ2IP5FTZQ,English,male,NA,trees,NA,1,1566414354828,3,NA,This is a ,1,These are both,NA,bonsai,warmup2
318,redwood,Wed Aug 21 2019 15:05:54 GMT-0400 (Eastern Daylight Time),NA,8,warmup/bonsai.jpg,redwood|sequoia,This is a ,,2,3IKMEYR0LWJ6VU226WM3KP3TH2JK2D,trees,margaret,3ON104KXQLKAGS9ZPQTWPZQACJG4WF,bonsai,yes,Please label the pictures below.,NA,NA,31,NA,,warmup/sequoia.jpg,trees,graduated_college,A3C0NQ2IP5FTZQ,English,male,NA,trees,NA,1,1566414354828,4,NA,This is a ,1,These are both,NA,bonsai,warmup2
318,pug,Wed Aug 21 2019 15:05:54 GMT-0400 (Eastern Daylight Time),NA,8,warmup/great-dane.jpg,pug,This is a ,,2,3IKMEYR0LWJ6VU226WM3KP3TH2JK2D,dogs,margaret,3ON104KXQLKAGS9ZPQTWPZQACJG4WF,great dane,yes,Please label the pictures below.,NA,NA,31,NA,,warmup/pug.jpg,dogs,graduated_college,A3C0NQ2IP5FTZQ,English,male,NA,dogs,NA,2,1566414354828,1,NA,This is a ,1,These are both,NA,dog,warmup2
318,pug,Wed Aug 21 2019 15:05:54 GMT-0400 (Eastern Daylight Time),NA,8,warmup/great-dane.jpg,pug,This is a ,,2,3IKMEYR0LWJ6VU226WM3KP3TH2JK2D,dogs,margaret,3ON104KXQLKAGS9ZPQTWPZQACJG4WF,great dane,yes,Please label the pictures below.,NA,NA,31,NA,,warmup/pug.jpg,dogs,graduated_college,A3C0NQ2IP5FTZQ,English,male,NA,dogs,NA,2,1566414354828,2,NA,This is a ,1,These are both,NA,great dane,warmup2
318,dove,Wed Aug 21 2019 15:05:54 GMT-0400 (Eastern Daylight Time),NA,8,warmup/canary.jpg,swan,This is a ,,2,3IKMEYR0LWJ6VU226WM3KP3TH2JK2D,birds,margaret,3ON104KXQLKAGS9ZPQTWPZQACJG4WF,canary,yes,Please label the pictures below.,NA,NA,31,NA,,warmup/swan.jpg,birds,graduated_college,A3C0NQ2IP5FTZQ,English,male,NA,birds,NA,3,1566414354828,1,NA,This is a ,1,These are both,NA,bird,warmup2
318,swan,Wed Aug 21 2019 15:05:54 GMT-0400 (Eastern Daylight Time),NA,8,warmup/canary.jpg,swan,This is a ,,2,3IKMEYR0LWJ6VU226WM3KP3TH2JK2D,birds,margaret,3ON104KXQLKAGS9ZPQTWPZQACJG4WF,canary,yes,Please label the pictures below.,NA,NA,31,NA,,warmup/swan.jpg,birds,graduated_college,A3C0NQ2IP5FTZQ,English,male,NA,birds,NA,3,1566414354828,2,NA,This is a ,1,These are both,NA,canary,warmup2
318,NA,Wed Aug 21 2019 15:05:54 GMT-0400 (Eastern Daylight Time),images/tree-parade.png,8,NA,NA,That ,,2,3IKMEYR0LWJ6VU226WM3KP3TH2JK2D,trees,margaret,3ON104KXQLKAGS9ZPQTWPZQACJG4WF,NA,yes,This one is also in the landscape.,predicative,You say to your friend:,31,bonsai,,NA,NA,graduated_college,A3C0NQ2IP5FTZQ,English,male,,NA,You see the following items in a landscape.,1,1566414354828,NA,images/bonsai.png,NA,1, is small.,small,NA,main2
318,NA,Wed Aug 21 2019 15:05:54 GMT-0400 (Eastern Daylight Time),images/dog-parade2.png,8,NA,NA,That ,,2,3IKMEYR0LWJ6VU226WM3KP3TH2JK2D,dogs,margaret,3ON104KXQLKAGS9ZPQTWPZQACJG4WF,NA,yes,This one is also in the parade.,predicative,You say to your friend:,31,pug,,NA,NA,graduated_college,A3C0NQ2IP5FTZQ,English,male,,NA,You see a parade of animals.,2,1566414354828,NA,images/pug.png,NA,1, is small.,small,NA,main2
318,NA,Wed Aug 21 2019 15:05:54 GMT-0400 (Eastern Daylight Time),images/bird-parade3.png,8,NA,NA,That ,,2,3IKMEYR0LWJ6VU226WM3KP3TH2JK2D,birds,margaret,3ON104KXQLKAGS9ZPQTWPZQACJG4WF,NA,yes,This one is also in the parade.,predicative,You say to your friend:,31,swan,,NA,NA,graduated_college,A3C0NQ2IP5FTZQ,English,male,,NA,You see a parade of animals.,3,1566414354828,NA,images/swan.png,NA,1, is big.,big,NA,main2
317,bird,Wed Aug 21 2019 14:03:11 GMT-0500 (Eastern Standard Time),NA,8,warmup/eagle.jpg,hummingbird,This is a ,no,2,3VLL1PIENQCFRWQTTVNAEHU9MGSOZ9,birds,Elizabeth,3SNVL38CI5GMGWSXTRGBKM83HPOCK4,eagle,yes,Please label the pictures below.,NA,NA,41,NA,love the study,warmup/colibri.jpg,birds,higher_degree,AWLT46A9EWTK8,ENGLISH,male,NA,birds,NA,1,1566414191674,1,NA,This is an ,1.5,These are both,NA,eagle,warmup1
317,bird,Wed Aug 21 2019 14:03:11 GMT-0500 (Eastern Standard Time),NA,8,warmup/eagle.jpg,hummingbird,This is a ,no,2,3VLL1PIENQCFRWQTTVNAEHU9MGSOZ9,birds,Elizabeth,3SNVL38CI5GMGWSXTRGBKM83HPOCK4,eagle,yes,Please label the pictures below.,NA,NA,41,NA,love the study,warmup/colibri.jpg,birds,higher_degree,AWLT46A9EWTK8,ENGLISH,male,NA,birds,NA,1,1566414191674,2,NA,This is an ,1.5,These are both,NA,eagle,warmup1
317,bird,Wed Aug 21 2019 14:03:11 GMT-0500 (Eastern Standard Time),NA,8,warmup/eagle.jpg,hummingbird,This is a ,no,2,3VLL1PIENQCFRWQTTVNAEHU9MGSOZ9,birds,Elizabeth,3SNVL38CI5GMGWSXTRGBKM83HPOCK4,eagle,yes,Please label the pictures below.,NA,NA,41,NA,love the study,warmup/colibri.jpg,birds,higher_degree,AWLT46A9EWTK8,ENGLISH,male,NA,birds,NA,1,1566414191674,3,NA,This is an ,1.5,These are both,NA,eagle,warmup1
317,hummingbird,Wed Aug 21 2019 14:03:11 GMT-0500 (Eastern Standard Time),NA,8,warmup/eagle.jpg,hummingbird,This is a ,no,2,3VLL1PIENQCFRWQTTVNAEHU9MGSOZ9,birds,Elizabeth,3SNVL38CI5GMGWSXTRGBKM83HPOCK4,eagle,yes,Please label the pictures below.,NA,NA,41,NA,love the study,warmup/colibri.jpg,birds,higher_degree,AWLT46A9EWTK8,ENGLISH,male,NA,birds,NA,1,1566414191674,4,NA,This is an ,1.5,These are both,NA,eagle,warmup1
317,dandelion,Wed Aug 21 2019 14:03:11 GMT-0500 (Eastern Standard Time),NA,8,warmup/sunflower.png,dandelion,This is a ,no,2,3VLL1PIENQCFRWQTTVNAEHU9MGSOZ9,flowers,Elizabeth,3SNVL38CI5GMGWSXTRGBKM83HPOCK4,sunflower,yes,Please label the pictures below.,NA,NA,41,NA,love the study,warmup/dandelion.jpg,flowers,higher_degree,AWLT46A9EWTK8,ENGLISH,male,NA,flowers,NA,2,1566414191674,1,NA,This is a ,1.5,These are both,NA,sunflower,warmup1
317,shark,Wed Aug 21 2019 14:03:11 GMT-0500 (Eastern Standard Time),NA,8,warmup/goldfish.png,swordfish,This is a ,no,2,3VLL1PIENQCFRWQTTVNAEHU9MGSOZ9,fish,Elizabeth,3SNVL38CI5GMGWSXTRGBKM83HPOCK4,goldfish,yes,Please label the pictures below.,NA,NA,41,NA,love the study,warmup/swordfish.jpg,fish,higher_degree,AWLT46A9EWTK8,ENGLISH,male,NA,fish,NA,3,1566414191674,1,NA,This is a ,1.5,These are both,NA,fish,warmup1
317,shark,Wed Aug 21 2019 14:03:11 GMT-0500 (Eastern Standard Time),NA,8,warmup/goldfish.png,swordfish,This is a ,no,2,3VLL1PIENQCFRWQTTVNAEHU9MGSOZ9,fish,Elizabeth,3SNVL38CI5GMGWSXTRGBKM83HPOCK4,goldfish,yes,Please label the pictures below.,NA,NA,41,NA,love the study,warmup/swordfish.jpg,fish,higher_degree,AWLT46A9EWTK8,ENGLISH,male,NA,fish,NA,3,1566414191674,2,NA,This is a ,1.5,These are both,NA,goldfish,warmup1
317,shark,Wed Aug 21 2019 14:03:11 GMT-0500 (Eastern Standard Time),NA,8,warmup/goldfish.png,swordfish,This is a ,no,2,3VLL1PIENQCFRWQTTVNAEHU9MGSOZ9,fish,Elizabeth,3SNVL38CI5GMGWSXTRGBKM83HPOCK4,goldfish,yes,Please label the pictures below.,NA,NA,41,NA,love the study,warmup/swordfish.jpg,fish,higher_degree,AWLT46A9EWTK8,ENGLISH,male,NA,fish,NA,3,1566414191674,3,NA,This is a ,1.5,These are both,NA,goldfish,warmup1
317,shark,Wed Aug 21 2019 14:03:11 GMT-0500 (Eastern Standard Time),NA,8,warmup/goldfish.png,swordfish,This is a ,no,2,3VLL1PIENQCFRWQTTVNAEHU9MGSOZ9,fish,Elizabeth,3SNVL38CI5GMGWSXTRGBKM83HPOCK4,goldfish,yes,Please label the pictures below.,NA,NA,41,NA,love the study,warmup/swordfish.jpg,fish,higher_degree,AWLT46A9EWTK8,ENGLISH,male,NA,fish,NA,3,1566414191674,4,NA,This is a ,1.5,These are both,NA,goldfish,warmup1
317,Atlantic blue marlin,Wed Aug 21 2019 14:03:11 GMT-0500 (Eastern Standard Time),NA,8,warmup/goldfish.png,swordfish,This is a ,no,2,3VLL1PIENQCFRWQTTVNAEHU9MGSOZ9,fish,Elizabeth,3SNVL38CI5GMGWSXTRGBKM83HPOCK4,goldfish,yes,Please label the pictures below.,NA,NA,41,NA,love the study,warmup/swordfish.jpg,fish,higher_degree,AWLT46A9EWTK8,ENGLISH,male,NA,fish,NA,3,1566414191674,5,NA,This is a ,1.5,These are both,NA,goldfish,warmup1
317,Atlantic blue marlin,Wed Aug 21 2019 14:03:11 GMT-0500 (Eastern Standard Time),NA,8,warmup/goldfish.png,swordfish,This is a ,no,2,3VLL1PIENQCFRWQTTVNAEHU9MGSOZ9,fish,Elizabeth,3SNVL38CI5GMGWSXTRGBKM83HPOCK4,goldfish,yes,Please label the pictures below.,NA,NA,41,NA,love the study,warmup/swordfish.jpg,fish,higher_degree,AWLT46A9EWTK8,ENGLISH,male,NA,fish,NA,3,1566414191674,6,NA,This is a ,1.5,These are both,NA,goldfish,warmup1
317,Atlantic blue marlin,Wed Aug 21 2019 14:03:11 GMT-0500 (Eastern Standard Time),NA,8,warmup/goldfish.png,swordfish,This is a ,no,2,3VLL1PIENQCFRWQTTVNAEHU9MGSOZ9,fish,Elizabeth,3SNVL38CI5GMGWSXTRGBKM83HPOCK4,goldfish,yes,Please label the pictures below.,NA,NA,41,NA,love the study,warmup/swordfish.jpg,fish,higher_degree,AWLT46A9EWTK8,ENGLISH,male,NA,fish,NA,3,1566414191674,7,NA,This is a ,1.5,These are both,NA,goldfish,warmup1
317,Atlantic blue marlin,Wed Aug 21 2019 14:03:11 GMT-0500 (Eastern Standard Time),NA,8,warmup/goldfish.png,swordfish,This is a ,no,2,3VLL1PIENQCFRWQTTVNAEHU9MGSOZ9,fish,Elizabeth,3SNVL38CI5GMGWSXTRGBKM83HPOCK4,goldfish,yes,Please label the pictures below.,NA,NA,41,NA,love the study,warmup/swordfish.jpg,fish,higher_degree,AWLT46A9EWTK8,ENGLISH,male,NA,fish,NA,3,1566414191674,8,NA,This is a ,1.5,These are both,NA,goldfish,warmup1
317,Atlantic blue marlin,Wed Aug 21 2019 14:03:11 GMT-0500 (Eastern Standard Time),NA,8,warmup/goldfish.png,swordfish,This is a ,no,2,3VLL1PIENQCFRWQTTVNAEHU9MGSOZ9,fish,Elizabeth,3SNVL38CI5GMGWSXTRGBKM83HPOCK4,goldfish,yes,Please label the pictures below.,NA,NA,41,NA,love the study,warmup/swordfish.jpg,fishes,higher_degree,AWLT46A9EWTK8,ENGLISH,male,NA,fish,NA,3,1566414191674,9,NA,This is a ,1.5,These are both,NA,goldfish,warmup1
317,swordfish,Wed Aug 21 2019 14:03:11 GMT-0500 (Eastern Standard Time),NA,8,warmup/goldfish.png,swordfish,This is a ,no,2,3VLL1PIENQCFRWQTTVNAEHU9MGSOZ9,fish,Elizabeth,3SNVL38CI5GMGWSXTRGBKM83HPOCK4,goldfish,yes,Please label the pictures below.,NA,NA,41,NA,love the study,warmup/swordfish.jpg,fish,higher_degree,AWLT46A9EWTK8,ENGLISH,male,NA,fish,NA,3,1566414191674,10,NA,This is a ,1.5,These are both,NA,goldfish,warmup1
317,NA,Wed Aug 21 2019 14:03:11 GMT-0500 (Eastern Standard Time),images/fish-parade.png,8,NA,NA,That ,no,2,3VLL1PIENQCFRWQTTVNAEHU9MGSOZ9,fish,Elizabeth,3SNVL38CI5GMGWSXTRGBKM83HPOCK4,NA,yes,This one is also in the parade.,predicative,You say to your friend:,41,swordfish,love the study,NA,NA,higher_degree,AWLT46A9EWTK8,ENGLISH,male,,NA,You see a parade of animals.,1,1566414191674,NA,images/swordfish.png,NA,1.5, is big.,big,NA,main1
317,NA,Wed Aug 21 2019 14:03:11 GMT-0500 (Eastern Standard Time),images/bird-parade2.png,8,NA,NA,That ,no,2,3VLL1PIENQCFRWQTTVNAEHU9MGSOZ9,birds,Elizabeth,3SNVL38CI5GMGWSXTRGBKM83HPOCK4,NA,yes,This one is also in the parade.,predicative,You say to your friend:,41,eagle,love the study,NA,NA,higher_degree,AWLT46A9EWTK8,ENGLISH,male,,NA,You see a parade of animals.,2,1566414191674,NA,images/eagle.png,NA,1.5, is big.,big,NA,main1
317,NA,Wed Aug 21 2019 14:03:11 GMT-0500 (Eastern Standard Time),images/flower-parade2.png,8,NA,NA,That ,no,2,3VLL1PIENQCFRWQTTVNAEHU9MGSOZ9,flowers,Elizabeth,3SNVL38CI5GMGWSXTRGBKM83HPOCK4,NA,yes,This one is also in the collection.,predicative,You say to your friend:,41,sunflower,love the study,NA,NA,higher_degree,AWLT46A9EWTK8,ENGLISH,male,,NA,You see a collection of plants.,3,1566414191674,NA,images/dandelion.png,NA,1.5, is small.,small,NA,main1
317,dog,Wed Aug 21 2019 14:03:11 GMT-0500 (Eastern Standard Time),NA,8,warmup/doberman.png,chihuahua,This is a ,no,2,3VLL1PIENQCFRWQTTVNAEHU9MGSOZ9,dogs,Elizabeth,3SNVL38CI5GMGWSXTRGBKM83HPOCK4,doberman,yes,Please label the pictures below.,NA,NA,41,NA,love the study,warmup/chihuahua.jpg,dog,higher_degree,AWLT46A9EWTK8,ENGLISH,male,NA,dogs,NA,1,1566414191674,1,NA,This is a ,1.5,These are both,NA,dog,warmup2
317,chihuahua,Wed Aug 21 2019 14:03:11 GMT-0500 (Eastern Standard Time),NA,8,warmup/doberman.png,chihuahua,This is a ,no,2,3VLL1PIENQCFRWQTTVNAEHU9MGSOZ9,dogs,Elizabeth,3SNVL38CI5GMGWSXTRGBKM83HPOCK4,doberman,yes,Please label the pictures below.,NA,NA,41,NA,love the study,warmup/chihuahua.jpg,dogs,higher_degree,AWLT46A9EWTK8,ENGLISH,male,NA,dogs,NA,1,1566414191674,2,NA,This is a ,1.5,These are both,NA,doberman,warmup2
317,duck,Wed Aug 21 2019 14:03:11 GMT-0500 (Eastern Standard Time),NA,8,warmup/canary.jpg,swan,This is a ,no,2,3VLL1PIENQCFRWQTTVNAEHU9MGSOZ9,birds,Elizabeth,3SNVL38CI5GMGWSXTRGBKM83HPOCK4,canary,yes,Please label the pictures below.,NA,NA,41,NA,love the study,warmup/swan.jpg,birds,higher_degree,AWLT46A9EWTK8,ENGLISH,male,NA,birds,NA,2,1566414191674,1,NA,This is a ,1.5,These are both,NA,bird,warmup2
317,swan,Wed Aug 21 2019 14:03:11 GMT-0500 (Eastern Standard Time),NA,8,warmup/canary.jpg,swan,This is a ,no,2,3VLL1PIENQCFRWQTTVNAEHU9MGSOZ9,birds,Elizabeth,3SNVL38CI5GMGWSXTRGBKM83HPOCK4,canary,yes,Please label the pictures below.,NA,NA,41,NA,love the study,warmup/swan.jpg,birds,higher_degree,AWLT46A9EWTK8,ENGLISH,male,NA,birds,NA,2,1566414191674,2,NA,This is a ,1.5,These are both,NA,canary,warmup2
317,fish,Wed Aug 21 2019 14:03:11 GMT-0500 (Eastern Standard Time),NA,8,warmup/clownfish.jpg,tuna,This is a ,no,2,3VLL1PIENQCFRWQTTVNAEHU9MGSOZ9,fish,Elizabeth,3SNVL38CI5GMGWSXTRGBKM83HPOCK4,clownfish,yes,Please label the pictures below.,NA,NA,41,NA,love the study,warmup/tuna.jpg,fish,higher_degree,AWLT46A9EWTK8,ENGLISH,male,NA,fish,NA,3,1566414191674,1,NA,This is a ,1.5,These are both,NA,fish,warmup2
317,tuna,Wed Aug 21 2019 14:03:11 GMT-0500 (Eastern Standard Time),NA,8,warmup/clownfish.jpg,tuna,This is a ,no,2,3VLL1PIENQCFRWQTTVNAEHU9MGSOZ9,fish,Elizabeth,3SNVL38CI5GMGWSXTRGBKM83HPOCK4,clownfish,yes,Please label the pictures below.,NA,NA,41,NA,love the study,warmup/tuna.jpg,fish,higher_degree,AWLT46A9EWTK8,ENGLISH,male,NA,fish,NA,3,1566414191674,2,NA,This is a ,1.5,These are both,NA,clownfish,warmup2
317,NA,Wed Aug 21 2019 14:03:11 GMT-0500 (Eastern Standard Time),images/dog-parade.png,8,NA,NA,That ,no,2,3VLL1PIENQCFRWQTTVNAEHU9MGSOZ9,dogs,Elizabeth,3SNVL38CI5GMGWSXTRGBKM83HPOCK4,NA,yes,This one is also in the parade.,predicative,You say to your friend:,41,dog,love the study,NA,NA,higher_degree,AWLT46A9EWTK8,ENGLISH,male,,NA,You see a parade of animals.,1,1566414191674,NA,images/doberman.png,NA,1.5, is big.,big,NA,main2
317,NA,Wed Aug 21 2019 14:03:11 GMT-0500 (Eastern Standard Time),images/fish-parade2.png,8,NA,NA,That ,no,2,3VLL1PIENQCFRWQTTVNAEHU9MGSOZ9,fish,Elizabeth,3SNVL38CI5GMGWSXTRGBKM83HPOCK4,NA,yes,This one is also in the parade.,predicative,You say to your friend:,41,swordfish,love the study,NA,NA,higher_degree,AWLT46A9EWTK8,ENGLISH,male,,NA,You see a parade of animals.,2,1566414191674,NA,images/clownfish.png,NA,1.5, is small.,small,NA,main2
317,NA,Wed Aug 21 2019 14:03:11 GMT-0500 (Eastern Standard Time),images/bird-parade3.png,8,NA,NA,That ,no,2,3VLL1PIENQCFRWQTTVNAEHU9MGSOZ9,birds,Elizabeth,3SNVL38CI5GMGWSXTRGBKM83HPOCK4,NA,yes,This one is also in the parade.,predicative,You say to your friend:,41,bird,love the study,NA,NA,higher_degree,AWLT46A9EWTK8,ENGLISH,male,,NA,You see a parade of animals.,3,1566414191674,NA,images/canary.png,NA,1.5, is small.,small,NA,main2
316,duck,Wed Aug 21 2019 12:00:34 GMT-0700 (Pacific Daylight Time),NA,8,warmup/canary.jpg,swan,This is a ,no,2,3ZZAYRN1I6FJ5KHUN3YSSTTS1K6OTT,birds,patricia,3RJSC4XJ11IZ4LCEAOJLNWNKBAW50J,canary,,Please label the pictures below.,NA,NA,39,NA,nice survey,warmup/swan.jpg,birds,graduated_college,A22KYUSPCMWIKR,english,male,NA,birds,NA,1,1566414034271,1,NA,This is a ,1,These are both,NA,bird,warmup1
316,swan,Wed Aug 21 2019 12:00:34 GMT-0700 (Pacific Daylight Time),NA,8,warmup/canary.jpg,swan,This is a ,no,2,3ZZAYRN1I6FJ5KHUN3YSSTTS1K6OTT,birds,patricia,3RJSC4XJ11IZ4LCEAOJLNWNKBAW50J,canary,,Please label the pictures below.,NA,NA,39,NA,nice survey,warmup/swan.jpg,birds,graduated_college,A22KYUSPCMWIKR,english,male,NA,birds,NA,1,1566414034271,2,NA,This is a ,1,These are both,NA,canary,warmup1
316,tillapia,Wed Aug 21 2019 12:00:34 GMT-0700 (Pacific Daylight Time),NA,8,warmup/clownfish.jpg,tuna,This is a ,no,2,3ZZAYRN1I6FJ5KHUN3YSSTTS1K6OTT,fish,patricia,3RJSC4XJ11IZ4LCEAOJLNWNKBAW50J,clownfish,,Please label the pictures below.,NA,NA,39,NA,nice survey,warmup/tuna.jpg,fish,graduated_college,A22KYUSPCMWIKR,english,male,NA,fish,NA,2,1566414034271,1,NA,This is a ,1,These are both,NA,electric fish,warmup1
316,tuna,Wed Aug 21 2019 12:00:34 GMT-0700 (Pacific Daylight Time),NA,8,warmup/clownfish.jpg,tuna,This is a ,no,2,3ZZAYRN1I6FJ5KHUN3YSSTTS1K6OTT,fish,patricia,3RJSC4XJ11IZ4LCEAOJLNWNKBAW50J,clownfish,,Please label the pictures below.,NA,NA,39,NA,nice survey,warmup/tuna.jpg,fish,graduated_college,A22KYUSPCMWIKR,english,male,NA,fish,NA,2,1566414034271,2,NA,This is a ,1,These are both,NA,clownfish,warmup1
316,dog,Wed Aug 21 2019 12:00:34 GMT-0700 (Pacific Daylight Time),NA,8,warmup/doberman.png,chihuahua,This is a ,no,2,3ZZAYRN1I6FJ5KHUN3YSSTTS1K6OTT,dogs,patricia,3RJSC4XJ11IZ4LCEAOJLNWNKBAW50J,doberman,,Please label the pictures below.,NA,NA,39,NA,nice survey,warmup/chihuahua.jpg,dog,graduated_college,A22KYUSPCMWIKR,english,male,NA,dogs,NA,3,1566414034271,1,NA,This is a ,1,These are both,NA,rotweiller,warmup1
316,chihuahua,Wed Aug 21 2019 12:00:34 GMT-0700 (Pacific Daylight Time),NA,8,warmup/doberman.png,chihuahua,This is a ,no,2,3ZZAYRN1I6FJ5KHUN3YSSTTS1K6OTT,dogs,patricia,3RJSC4XJ11IZ4LCEAOJLNWNKBAW50J,doberman,,Please label the pictures below.,NA,NA,39,NA,nice survey,warmup/chihuahua.jpg,dogs,graduated_college,A22KYUSPCMWIKR,english,male,NA,dogs,NA,3,1566414034271,2,NA,This is a ,1,These are both,NA,doberman,warmup1
316,NA,Wed Aug 21 2019 12:00:34 GMT-0700 (Pacific Daylight Time),images/fish-parade2.png,8,NA,NA,That ,no,2,3ZZAYRN1I6FJ5KHUN3YSSTTS1K6OTT,fish,patricia,3RJSC4XJ11IZ4LCEAOJLNWNKBAW50J,NA,,This one is also in the parade.,predicative,You say to your friend:,39,clownfish,nice survey,NA,NA,graduated_college,A22KYUSPCMWIKR,english,male,,NA,You see a parade of animals.,1,1566414034271,NA,images/clownfish.png,NA,1, is small.,small,NA,main1
316,NA,Wed Aug 21 2019 12:00:34 GMT-0700 (Pacific Daylight Time),images/dog-parade.png,8,NA,NA,That ,no,2,3ZZAYRN1I6FJ5KHUN3YSSTTS1K6OTT,dogs,patricia,3RJSC4XJ11IZ4LCEAOJLNWNKBAW50J,NA,,This one is also in the parade.,predicative,You say to your friend:,39,chihuahua,nice survey,NA,NA,graduated_college,A22KYUSPCMWIKR,english,male,,NA,You see a parade of animals.,2,1566414034271,NA,images/chihuahua.png,NA,1, is small.,small,NA,main1
316,NA,Wed Aug 21 2019 12:00:34 GMT-0700 (Pacific Daylight Time),images/bird-parade3.png,8,NA,NA,That ,no,2,3ZZAYRN1I6FJ5KHUN3YSSTTS1K6OTT,birds,patricia,3RJSC4XJ11IZ4LCEAOJLNWNKBAW50J,NA,,This one is also in the parade.,predicative,You say to your friend:,39,swan,nice survey,NA,NA,graduated_college,A22KYUSPCMWIKR,english,male,,NA,You see a parade of animals.,3,1566414034271,NA,images/swan.png,NA,1, is big.,big,NA,main1
316,palm,Wed Aug 21 2019 12:00:34 GMT-0700 (Pacific Daylight Time),NA,8,warmup/bonsai.jpg,redwood|sequoia,This is a ,no,2,3ZZAYRN1I6FJ5KHUN3YSSTTS1K6OTT,trees,patricia,3RJSC4XJ11IZ4LCEAOJLNWNKBAW50J,bonsai,,Please label the pictures below.,NA,NA,39,NA,nice survey,warmup/sequoia.jpg,trees,graduated_college,A22KYUSPCMWIKR,english,male,NA,trees,NA,1,1566414034271,1,NA,This is a ,1,These are both,NA,tree,warmup2
316,redwood,Wed Aug 21 2019 12:00:34 GMT-0700 (Pacific Daylight Time),NA,8,warmup/bonsai.jpg,redwood|sequoia,This is a ,no,2,3ZZAYRN1I6FJ5KHUN3YSSTTS1K6OTT,trees,patricia,3RJSC4XJ11IZ4LCEAOJLNWNKBAW50J,bonsai,,Please label the pictures below.,NA,NA,39,NA,nice survey,warmup/sequoia.jpg,trees,graduated_college,A22KYUSPCMWIKR,english,male,NA,trees,NA,1,1566414034271,2,NA,This is a ,1,These are both,NA,bonsai,warmup2
316,flower,Wed Aug 21 2019 12:00:34 GMT-0700 (Pacific Daylight Time),NA,8,warmup/sunflower.png,dandelion,This is a ,no,2,3ZZAYRN1I6FJ5KHUN3YSSTTS1K6OTT,flowers,patricia,3RJSC4XJ11IZ4LCEAOJLNWNKBAW50J,sunflower,,Please label the pictures below.,NA,NA,39,NA,nice survey,warmup/dandelion.jpg,flower,graduated_college,A22KYUSPCMWIKR,english,male,NA,flowers,NA,2,1566414034271,1,NA,This is a ,1,These are both,NA,flower,warmup2
316,dandelion,Wed Aug 21 2019 12:00:34 GMT-0700 (Pacific Daylight Time),NA,8,warmup/sunflower.png,dandelion,This is a ,no,2,3ZZAYRN1I6FJ5KHUN3YSSTTS1K6OTT,flowers,patricia,3RJSC4XJ11IZ4LCEAOJLNWNKBAW50J,sunflower,,Please label the pictures below.,NA,NA,39,NA,nice survey,warmup/dandelion.jpg,flower,graduated_college,A22KYUSPCMWIKR,english,male,NA,flowers,NA,2,1566414034271,2,NA,This is a ,1,These are both,NA,sunflower,warmup2
316,dandelion,Wed Aug 21 2019 12:00:34 GMT-0700 (Pacific Daylight Time),NA,8,warmup/sunflower.png,dandelion,This is a ,no,2,3ZZAYRN1I6FJ5KHUN3YSSTTS1K6OTT,flowers,patricia,3RJSC4XJ11IZ4LCEAOJLNWNKBAW50J,sunflower,,Please label the pictures below.,NA,NA,39,NA,nice survey,warmup/dandelion.jpg,flower,graduated_college,A22KYUSPCMWIKR,english,male,NA,flowers,NA,2,1566414034271,3,NA,This is a ,1,These are both,NA,sunflower,warmup2
316,dandelion,Wed Aug 21 2019 12:00:34 GMT-0700 (Pacific Daylight Time),NA,8,warmup/sunflower.png,dandelion,This is a ,no,2,3ZZAYRN1I6FJ5KHUN3YSSTTS1K6OTT,flowers,patricia,3RJSC4XJ11IZ4LCEAOJLNWNKBAW50J,sunflower,,Please label the pictures below.,NA,NA,39,NA,nice survey,warmup/dandelion.jpg,flowers,graduated_college,A22KYUSPCMWIKR,english,male,NA,flowers,NA,2,1566414034271,4,NA,This is a ,1,These are both,NA,sunflower,warmup2
316,duck,Wed Aug 21 2019 12:00:34 GMT-0700 (Pacific Daylight Time),NA,8,warmup/sparrow.jpg,goose,This is a ,no,2,3ZZAYRN1I6FJ5KHUN3YSSTTS1K6OTT,birds,patricia,3RJSC4XJ11IZ4LCEAOJLNWNKBAW50J,sparrow,,Please label the pictures below.,NA,NA,39,NA,nice survey,warmup/goose.png,brds,graduated_college,A22KYUSPCMWIKR,english,male,NA,birds,NA,3,1566414034271,1,NA,This is a ,1,These are both,NA,bird,warmup2
316,goose,Wed Aug 21 2019 12:00:34 GMT-0700 (Pacific Daylight Time),NA,8,warmup/sparrow.jpg,goose,This is a ,no,2,3ZZAYRN1I6FJ5KHUN3YSSTTS1K6OTT,birds,patricia,3RJSC4XJ11IZ4LCEAOJLNWNKBAW50J,sparrow,,Please label the pictures below.,NA,NA,39,NA,nice survey,warmup/goose.png,brds,graduated_college,A22KYUSPCMWIKR,english,male,NA,birds,NA,3,1566414034271,2,NA,This is a ,1,These are both,NA,birdsparrow,warmup2
316,goose,Wed Aug 21 2019 12:00:34 GMT-0700 (Pacific Daylight Time),NA,8,warmup/sparrow.jpg,goose,This is a ,no,2,3ZZAYRN1I6FJ5KHUN3YSSTTS1K6OTT,birds,patricia,3RJSC4XJ11IZ4LCEAOJLNWNKBAW50J,sparrow,,Please label the pictures below.,NA,NA,39,NA,nice survey,warmup/goose.png,brds,graduated_college,A22KYUSPCMWIKR,english,male,NA,birds,NA,3,1566414034271,3,NA,This is a ,1,These are both,NA,sparrow,warmup2
316,goose,Wed Aug 21 2019 12:00:34 GMT-0700 (Pacific Daylight Time),NA,8,warmup/sparrow.jpg,goose,This is a ,no,2,3ZZAYRN1I6FJ5KHUN3YSSTTS1K6OTT,birds,patricia,3RJSC4XJ11IZ4LCEAOJLNWNKBAW50J,sparrow,,Please label the pictures below.,NA,NA,39,NA,nice survey,warmup/goose.png,birds,graduated_college,A22KYUSPCMWIKR,english,male,NA,birds,NA,3,1566414034271,4,NA,This is a ,1,These are both,NA,sparrow,warmup2
316,NA,Wed Aug 21 2019 12:00:34 GMT-0700 (Pacific Daylight Time),images/bird-parade.png,8,NA,NA,That ,no,2,3ZZAYRN1I6FJ5KHUN3YSSTTS1K6OTT,birds,patricia,3RJSC4XJ11IZ4LCEAOJLNWNKBAW50J,NA,,This one is also in the parade.,predicative,You say to your friend:,39,goose,nice survey,NA,NA,graduated_college,A22KYUSPCMWIKR,english,male,,NA,You see a parade of animals.,1,1566414034271,NA,images/goose.png,NA,1, is big.,big,NA,main2
316,NA,Wed Aug 21 2019 12:00:34 GMT-0700 (Pacific Daylight Time),images/flower-parade2.png,8,NA,NA,That ,no,2,3ZZAYRN1I6FJ5KHUN3YSSTTS1K6OTT,flowers,patricia,3RJSC4XJ11IZ4LCEAOJLNWNKBAW50J,NA,,This one is also in the collection.,predicative,You say to your friend:,39,sunflower,nice survey,NA,NA,graduated_college,A22KYUSPCMWIKR,english,male,,NA,You see a collection of plants.,2,1566414034271,NA,images/sunflower.png,NA,1, is big.,big,NA,main2
316,NA,Wed Aug 21 2019 12:00:34 GMT-0700 (Pacific Daylight Time),images/tree-parade.png,8,NA,NA,That ,no,2,3ZZAYRN1I6FJ5KHUN3YSSTTS1K6OTT,trees,patricia,3RJSC4XJ11IZ4LCEAOJLNWNKBAW50J,NA,,This one is also in the landscape.,predicative,You say to your friend:,39,bonsai,nice survey,NA,NA,graduated_college,A22KYUSPCMWIKR,english,male,,NA,You see the following items in a landscape.,3,1566414034271,NA,images/bonsai.png,NA,1, is small.,small,NA,main2
315,hummingbird,Wed Aug 21 2019 14:01:57 GMT-0500 (Central Daylight Time),NA,8,warmup/eagle.jpg,hummingbird,This is a ,no,1,3ZZAYRN1I6FJ5KHUN3YSSTTS1K6OTT,birds,Elizabeth,3DIP6YHAPDGHITAAGTP3K5ZF71A8ED,eagle,yes,Please label the pictures below.,NA,NA,32,NA,"I can't spell, sorry...I'm dyslexic",warmup/colibri.jpg,birds,some_college,A2YJFCTJPPX66,English,female,NA,birds,NA,1,1566414117838,1,NA,This is an ,1,These are both,NA,bald eagle,warmup1
315,hummingbird,Wed Aug 21 2019 14:01:57 GMT-0500 (Central Daylight Time),NA,8,warmup/eagle.jpg,hummingbird,This is a ,no,1,3ZZAYRN1I6FJ5KHUN3YSSTTS1K6OTT,birds,Elizabeth,3DIP6YHAPDGHITAAGTP3K5ZF71A8ED,eagle,yes,Please label the pictures below.,NA,NA,32,NA,"I can't spell, sorry...I'm dyslexic",warmup/colibri.jpg,birds,some_college,A2YJFCTJPPX66,English,female,NA,birds,NA,1,1566414117838,2,NA,This is an ,1,These are both,NA,eagle,warmup1
315,tuna,Wed Aug 21 2019 14:01:57 GMT-0500 (Central Daylight Time),NA,8,warmup/clownfish.jpg,tuna,This is a ,no,1,3ZZAYRN1I6FJ5KHUN3YSSTTS1K6OTT,fish,Elizabeth,3DIP6YHAPDGHITAAGTP3K5ZF71A8ED,clownfish,yes,Please label the pictures below.,NA,NA,32,NA,"I can't spell, sorry...I'm dyslexic",warmup/tuna.jpg,fish,some_college,A2YJFCTJPPX66,English,female,NA,fish,NA,2,1566414117838,1,NA,This is a ,1,These are both,NA,clownfish,warmup1
315,daisy,Wed Aug 21 2019 14:01:57 GMT-0500 (Central Daylight Time),NA,8,warmup/peony.png,daisy,This is a ,no,1,3ZZAYRN1I6FJ5KHUN3YSSTTS1K6OTT,flowers,Elizabeth,3DIP6YHAPDGHITAAGTP3K5ZF71A8ED,peony,yes,Please label the pictures below.,NA,NA,32,NA,"I can't spell, sorry...I'm dyslexic",warmup/daisy.png,flowers,some_college,A2YJFCTJPPX66,English,female,NA,flowers,NA,3,1566414117838,1,NA,This is a ,1,These are both,NA,rose,warmup1
315,daisy,Wed Aug 21 2019 14:01:57 GMT-0500 (Central Daylight Time),NA,8,warmup/peony.png,daisy,This is a ,no,1,3ZZAYRN1I6FJ5KHUN3YSSTTS1K6OTT,flowers,Elizabeth,3DIP6YHAPDGHITAAGTP3K5ZF71A8ED,peony,yes,Please label the pictures below.,NA,NA,32,NA,"I can't spell, sorry...I'm dyslexic",warmup/daisy.png,flowers,some_college,A2YJFCTJPPX66,English,female,NA,flowers,NA,3,1566414117838,2,NA,This is a ,1,These are both,NA,peony,warmup1
315,NA,Wed Aug 21 2019 14:01:57 GMT-0500 (Central Daylight Time),images/fish-parade2.png,8,NA,NA,That ,no,1,3ZZAYRN1I6FJ5KHUN3YSSTTS1K6OTT,fish,Elizabeth,3DIP6YHAPDGHITAAGTP3K5ZF71A8ED,NA,yes,This one is also in the parade.,predicative,You say to your friend:,32,clownfish,"I can't spell, sorry...I'm dyslexic",NA,NA,some_college,A2YJFCTJPPX66,English,female,,NA,You see a parade of animals.,1,1566414117838,NA,images/clownfish.png,NA,1, is small.,small,NA,main1
