submission_id,RT,adj_cond,age,botresponse,comments,condition,context,context_picture,education,enjoyment,experiment_id,fairprice,item,languages,picture,problems,question1,question2,response,sentence,sex,size_adj,size_target,startTime,text,trial_name,trial_number,understand
255,NA,congruent,55,patricia,This was very interesting,prenominal,You see a parade of animals.,images/birds_parade_small.png,graduated_college,1,6,0.6,birds,English,images/hummingbird.png,no,That's a small,NA,hummingbird,You say to your friend:,female,small,small,1565036090016,This one is also in the parade.,main1,1,yes
255,NA,congruent,55,patricia,This was very interesting,prenominal,You see a parade of animals.,images/animal_parade_big.png,graduated_college,1,6,0.6,dogs,English,images/great-dane.png,no,That's a big,NA,dog,You say to your friend:,female,big,big,1565036090016,This one is also in the parade.,main1,2,yes
255,NA,congruent,55,patricia,This was very interesting,prenominal,You see a parade of animals.,images/primates_parade_small.png,graduated_college,1,6,0.6,primates,English,images/spider-monkey.png,no,That's a small,NA,monkey,You say to your friend:,female,small,small,1565036090016,This one is also in the parade.,main1,3,yes
255,NA,congruent,55,patricia,This was very interesting,prenominal,You see the following items in a landscape.,images/landscape_small.png,graduated_college,1,6,0.6,trees,English,images/bonsai.png,no,That's a small,NA,tree,You say to your friend:,female,small,small,1565036090016,This one is also in the landscape.,main2,1,yes
255,NA,congruent,55,patricia,This was very interesting,prenominal,You see a parade of animals.,images/fish_parade_big.png,graduated_college,1,6,0.6,fish,English,images/swordfish.png,no,That's a big,NA,blue and white fish,You say to your friend:,female,big,big,1565036090016,This one is also in the parade.,main2,2,yes
255,NA,congruent,55,patricia,This was very interesting,prenominal,You see a collection of plants.,images/plant_parade_big.png,graduated_college,1,6,0.6,flowers,English,images/sunflower.png,no,That's a big,NA,sunflower,You say to your friend:,female,big,big,1565036090016,This one is also in the collection.,main2,3,yes
254,NA,congruent,28,Patricia,NA,predicative,You see the following items in a landscape.,images/landscape_big.png,graduated_college,1,6,0.60,trees,Spanish,images/redwood.png,none,That,is big.,tree,You say to your friend:,female,big,big,1565035541012,This one is also in the landscape.,main1,1,yes
254,NA,congruent,28,Patricia,NA,predicative,You see a parade of animals.,images/animal_parade_small.png,graduated_college,1,6,0.60,dogs,Spanish,images/chihuahua.png,none,That,is small.,dog,You say to your friend:,female,small,small,1565035541012,This one is also in the parade.,main1,2,yes
254,NA,congruent,28,Patricia,NA,predicative,You see a parade of animals.,images/primates_parade_big.png,graduated_college,1,6,0.60,primates,Spanish,images/gorilla.png,none,That,is big.,gorilla,You say to your friend:,female,big,big,1565035541012,This one is also in the parade.,main1,3,yes
254,NA,congruent,28,Patricia,NA,predicative,You see a parade of animals.,images/fish_parade_big.png,graduated_college,1,6,0.60,fish,Spanish,images/swordfish.png,none,That,is big.,swordfish,You say to your friend:,female,big,big,1565035541012,This one is also in the parade.,main2,1,yes
254,NA,congruent,28,Patricia,NA,predicative,You see a parade of animals.,images/birds_parade_small.png,graduated_college,1,6,0.60,birds,Spanish,images/hummingbird.png,none,That,is small.,hummingbird,You say to your friend:,female,small,small,1565035541012,This one is also in the parade.,main2,2,yes
254,NA,congruent,28,Patricia,NA,predicative,You see a collection of plants.,images/plant_parade_small.png,graduated_college,1,6,0.60,flowers,Spanish,images/daisy.png,none,That,is small.,dandelion,You say to your friend:,female,small,small,1565035541012,This one is also in the collection.,main2,3,yes
253,NA,incongruent,25,susan,n/a,prenominal,You see a parade of animals.,images/birds_parade_big.png,graduated_high_school,1,6,0.50,birds,English,images/swan.png,no,That's a small,NA,goose,You say to your friend:,male,small,big,1565034977301,This one is also in the parade.,main1,1,yes
253,NA,incongruent,25,susan,n/a,prenominal,You see a parade of animals.,images/fish_parade_small.png,graduated_high_school,1,6,0.50,fish,English,images/goldfish.png,no,That's a big,NA,fish,You say to your friend:,male,big,small,1565034977301,This one is also in the parade.,main1,2,yes
253,NA,incongruent,25,susan,n/a,prenominal,You see a parade of animals.,images/primates_parade_small.png,graduated_high_school,1,6,0.50,primates,English,images/spider-monkey.png,no,That's a big,NA,monkey,You say to your friend:,male,big,small,1565034977301,This one is also in the parade.,main1,3,yes
253,NA,incongruent,25,susan,n/a,prenominal,You see a parade of animals.,images/animal_parade_small.png,graduated_high_school,1,6,0.50,dogs,English,images/chihuahua.png,no,That's a big,NA,dog,You say to your friend:,male,big,small,1565034977301,This one is also in the parade.,main2,1,yes
253,NA,incongruent,25,susan,n/a,prenominal,You see the following items in a landscape.,images/landscape_big.png,graduated_high_school,1,6,0.50,trees,English,images/redwood.png,no,That's a small,NA,tree,You say to your friend:,male,small,big,1565034977301,This one is also in the landscape.,main2,2,yes
253,NA,incongruent,25,susan,n/a,prenominal,You see a collection of plants.,images/plant_parade_big.png,graduated_high_school,1,6,0.50,flowers,English,images/sunflower.png,no,That's a small,NA,flower,You say to your friend:,male,small,big,1565034977301,This one is also in the collection.,main2,3,yes
252,NA,congruent,33,margaret,NA,predicative,You see a parade of animals.,images/fish_parade_small.png,some_college,1,6,1.00,fish,English,images/goldfish.png,NA,That,is small.,goldfish,You say to your friend:,male,small,small,1565034865884,This one is also in the parade.,main1,1,yes
252,NA,congruent,33,margaret,NA,predicative,You see a parade of animals.,images/primates_parade_big.png,some_college,1,6,1.00,primates,English,images/gorilla.png,NA,That,is big.,Gorilla,You say to your friend:,male,big,big,1565034865884,This one is also in the parade.,main1,2,yes
252,NA,congruent,33,margaret,NA,predicative,You see the following items in a landscape.,images/landscape_big.png,some_college,1,6,1.00,trees,English,images/redwood.png,NA,That,is big.,tree,You say to your friend:,male,big,big,1565034865884,This one is also in the landscape.,main1,3,yes
252,NA,congruent,33,margaret,NA,predicative,You see a collection of plants.,images/plant_parade_small.png,some_college,1,6,1.00,flowers,English,images/daisy.png,NA,That,is small.,Leaf,You say to your friend:,male,small,small,1565034865884,This one is also in the collection.,main2,1,yes
252,NA,congruent,33,margaret,NA,predicative,You see a parade of animals.,images/birds_parade_small.png,some_college,1,6,1.00,birds,English,images/hummingbird.png,NA,That,is small.,Hummingbird,You say to your friend:,male,small,small,1565034865884,This one is also in the parade.,main2,2,yes
252,NA,congruent,33,margaret,NA,predicative,You see a parade of animals.,images/animal_parade_big.png,some_college,1,6,1.00,dogs,English,images/great-dane.png,NA,That,is big.,dog,You say to your friend:,male,big,big,1565034865884,This one is also in the parade.,main2,3,yes
251,NA,congruent,22,Margaret,NA,predicative,You see a collection of plants.,images/plant_parade_small.png,graduated_college,1,6,.50,flowers,english,images/daisy.png,NA,That,is small.,plant,You say to your friend:,male,small,small,1565034856944,This one is also in the collection.,main1,1,confused
251,NA,congruent,22,Margaret,NA,predicative,You see the following items in a landscape.,images/landscape_big.png,graduated_college,1,6,.50,trees,english,images/redwood.png,NA,That,is big.,tree,You say to your friend:,male,big,big,1565034856944,This one is also in the landscape.,main1,2,confused
251,NA,congruent,22,Margaret,NA,predicative,You see a parade of animals.,images/animal_parade_small.png,graduated_college,1,6,.50,dogs,english,images/chihuahua.png,NA,That,is small.,animal,You say to your friend:,male,small,small,1565034856944,This one is also in the parade.,main1,3,confused
251,NA,congruent,22,Margaret,NA,predicative,You see a parade of animals.,images/fish_parade_small.png,graduated_college,1,6,.50,fish,english,images/goldfish.png,NA,That,is small.,fish,You say to your friend:,male,small,small,1565034856944,This one is also in the parade.,main2,1,confused
251,NA,congruent,22,Margaret,NA,predicative,You see a parade of animals.,images/primates_parade_big.png,graduated_college,1,6,.50,primates,english,images/gorilla.png,NA,That,is big.,animal,You say to your friend:,male,big,big,1565034856944,This one is also in the parade.,main2,2,confused
251,NA,congruent,22,Margaret,NA,predicative,You see a parade of animals.,images/birds_parade_big.png,graduated_college,1,6,.50,birds,english,images/swan.png,NA,That,is big.,bird,You say to your friend:,male,big,big,1565034856944,This one is also in the parade.,main2,3,confused
250,NA,congruent,61,Jessica,NA,predicative,You see the following items in a landscape.,images/landscape_small.png,some_college,2,6,.50,trees,English,images/bonsai.png,no,That,is small.,tree,You say to your friend:,female,small,small,1565034638730,This one is also in the landscape.,main1,1,yes
250,NA,congruent,61,Jessica,NA,predicative,You see a parade of animals.,images/primates_parade_big.png,some_college,2,6,.50,primates,English,images/gorilla.png,no,That,is big.,gorilla,You say to your friend:,female,big,big,1565034638730,This one is also in the parade.,main1,2,yes
250,NA,congruent,61,Jessica,NA,predicative,You see a parade of animals.,images/birds_parade_big.png,some_college,2,6,.50,birds,English,images/swan.png,no,That,is big.,swan,You say to your friend:,female,big,big,1565034638730,This one is also in the parade.,main1,3,yes
250,NA,congruent,61,Jessica,NA,predicative,You see a parade of animals.,images/animal_parade_small.png,some_college,2,6,.50,dogs,English,images/chihuahua.png,no,That,is small.,dog,You say to your friend:,female,small,small,1565034638730,This one is also in the parade.,main2,1,yes
250,NA,congruent,61,Jessica,NA,predicative,You see a parade of animals.,images/fish_parade_small.png,some_college,2,6,.50,fish,English,images/goldfish.png,no,That,is small.,fish,You say to your friend:,female,small,small,1565034638730,This one is also in the parade.,main2,2,yes
250,NA,congruent,61,Jessica,NA,predicative,You see a collection of plants.,images/plant_parade_big.png,some_college,2,6,.50,flowers,English,images/sunflower.png,no,That,is big.,sunflower,You say to your friend:,female,big,big,1565034638730,This one is also in the collection.,main2,3,yes
249,NA,incongruent,34,sarah,NA,predicative,You see a parade of animals.,images/animal_parade_small.png,graduated_college,1,6,.50,dogs,english,images/chihuahua.png,Pictures didn't load the first time.,That,is big.,horse,You say to your friend:,female,big,small,1565034669867,This one is also in the parade.,main1,1,confused
249,NA,incongruent,34,sarah,NA,predicative,You see the following items in a landscape.,images/landscape_big.png,graduated_college,1,6,.50,trees,english,images/redwood.png,Pictures didn't load the first time.,That,is small.,house,You say to your friend:,female,small,big,1565034669867,This one is also in the landscape.,main1,2,confused
249,NA,incongruent,34,sarah,NA,predicative,You see a parade of animals.,images/fish_parade_small.png,graduated_college,1,6,.50,fish,english,images/goldfish.png,Pictures didn't load the first time.,That,is big.,shark,You say to your friend:,female,big,small,1565034669867,This one is also in the parade.,main1,3,confused
249,NA,incongruent,34,sarah,NA,predicative,You see a parade of animals.,images/primates_parade_big.png,graduated_college,1,6,.50,primates,english,images/gorilla.png,Pictures didn't load the first time.,That,is small.,koala,You say to your friend:,female,small,big,1565034669867,This one is also in the parade.,main2,1,confused
249,NA,incongruent,34,sarah,NA,predicative,You see a collection of plants.,images/plant_parade_small.png,graduated_college,1,6,.50,flowers,english,images/daisy.png,Pictures didn't load the first time.,That,is big.,tree,You say to your friend:,female,big,small,1565034669867,This one is also in the collection.,main2,2,confused
249,NA,incongruent,34,sarah,NA,predicative,You see a parade of animals.,images/birds_parade_big.png,graduated_college,1,6,.50,birds,english,images/swan.png,Pictures didn't load the first time.,That,is small.,butterfly,You say to your friend:,female,small,big,1565034669867,This one is also in the parade.,main2,3,confused
248,NA,congruent,58,margaret,It was interesting.,predicative,You see a parade of animals.,images/birds_parade_small.png,graduated_college,1,6,0.50,birds,English,images/hummingbird.png,No I didn't have any problems.,That,is small.,bird,You say to your friend:,female,small,small,1565034496309,This one is also in the parade.,main1,1,yes
248,NA,congruent,58,margaret,It was interesting.,predicative,You see a parade of animals.,images/primates_parade_big.png,graduated_college,1,6,0.50,primates,English,images/gorilla.png,No I didn't have any problems.,That,is big.,gorilla,You say to your friend:,female,big,big,1565034496309,This one is also in the parade.,main1,2,yes
248,NA,congruent,58,margaret,It was interesting.,predicative,You see the following items in a landscape.,images/landscape_small.png,graduated_college,1,6,0.50,trees,English,images/bonsai.png,No I didn't have any problems.,That,is small.,plant,You say to your friend:,female,small,small,1565034496309,This one is also in the landscape.,main1,3,yes
248,NA,congruent,58,margaret,It was interesting.,predicative,You see a parade of animals.,images/fish_parade_big.png,graduated_college,1,6,0.50,fish,English,images/swordfish.png,No I didn't have any problems.,That,is big.,fish,You say to your friend:,female,big,big,1565034496309,This one is also in the parade.,main2,1,yes
248,NA,congruent,58,margaret,It was interesting.,predicative,You see a collection of plants.,images/plant_parade_big.png,graduated_college,1,6,0.50,flowers,English,images/sunflower.png,No I didn't have any problems.,That,is big.,flower,You say to your friend:,female,big,big,1565034496309,This one is also in the collection.,main2,2,yes
248,NA,congruent,58,margaret,It was interesting.,predicative,You see a parade of animals.,images/animal_parade_small.png,graduated_college,1,6,0.50,dogs,English,images/chihuahua.png,No I didn't have any problems.,That,is small.,dog,You say to your friend:,female,small,small,1565034496309,This one is also in the parade.,main2,3,yes
247,NA,congruent,19,sarah,NA,prenominal,You see a parade of animals.,images/fish_parade_small.png,some_college,1,6,.5,fish,English,images/goldfish.png,NA,That's a small,NA,scaly fish,You say to your friend:,male,small,small,1565034459779,This one is also in the parade.,main1,1,yes
247,NA,congruent,19,sarah,NA,prenominal,You see a collection of plants.,images/plant_parade_big.png,some_college,1,6,.5,flowers,English,images/sunflower.png,NA,That's a big,NA,sunflower,You say to your friend:,male,big,big,1565034459779,This one is also in the collection.,main1,2,yes
247,NA,congruent,19,sarah,NA,prenominal,You see a parade of animals.,images/birds_parade_big.png,some_college,1,6,.5,birds,English,images/swan.png,NA,That's a big,NA,duck,You say to your friend:,male,big,big,1565034459779,This one is also in the parade.,main1,3,yes
247,NA,congruent,19,sarah,NA,prenominal,You see the following items in a landscape.,images/landscape_big.png,some_college,1,6,.5,trees,English,images/redwood.png,NA,That's a big,NA,tree,You say to your friend:,male,big,big,1565034459779,This one is also in the landscape.,main2,1,yes
247,NA,congruent,19,sarah,NA,prenominal,You see a parade of animals.,images/primates_parade_small.png,some_college,1,6,.5,primates,English,images/spider-monkey.png,NA,That's a small,NA,monkey,You say to your friend:,male,small,small,1565034459779,This one is also in the parade.,main2,2,yes
247,NA,congruent,19,sarah,NA,prenominal,You see a parade of animals.,images/animal_parade_small.png,some_college,1,6,.5,dogs,English,images/chihuahua.png,NA,That's a small,NA,dog,You say to your friend:,male,small,small,1565034459779,This one is also in the parade.,main2,3,yes
246,NA,congruent,30,jessica,NA,predicative,You see the following items in a landscape.,images/landscape_small.png,graduated_college,2,6,.50,trees,English,images/bonsai.png,NA,That,is small.,tree,You say to your friend:,female,small,small,1565034497323,This one is also in the landscape.,main1,1,yes
246,NA,congruent,30,jessica,NA,predicative,You see a collection of plants.,images/plant_parade_big.png,graduated_college,2,6,.50,flowers,English,images/sunflower.png,NA,That,is big.,sunflower,You say to your friend:,female,big,big,1565034497323,This one is also in the collection.,main1,2,yes
246,NA,congruent,30,jessica,NA,predicative,You see a parade of animals.,images/birds_parade_small.png,graduated_college,2,6,.50,birds,English,images/hummingbird.png,NA,That,is small.,hummingbird,You say to your friend:,female,small,small,1565034497323,This one is also in the parade.,main1,3,yes
246,NA,congruent,30,jessica,NA,predicative,You see a parade of animals.,images/animal_parade_big.png,graduated_college,2,6,.50,dogs,English,images/great-dane.png,NA,That,is big.,dog,You say to your friend:,female,big,big,1565034497323,This one is also in the parade.,main2,1,yes
246,NA,congruent,30,jessica,NA,predicative,You see a parade of animals.,images/fish_parade_small.png,graduated_college,2,6,.50,fish,English,images/goldfish.png,NA,That,is small.,fish,You say to your friend:,female,small,small,1565034497323,This one is also in the parade.,main2,2,yes
246,NA,congruent,30,jessica,NA,predicative,You see a parade of animals.,images/primates_parade_big.png,graduated_college,2,6,.50,primates,English,images/gorilla.png,NA,That,is big.,gorilla,You say to your friend:,female,big,big,1565034497323,This one is also in the parade.,main2,3,yes
245,NA,congruent,26,Patricia,NA,predicative,You see a parade of animals.,images/birds_parade_small.png,some_college,2,6,.50,birds,English and Vietnamese,images/hummingbird.png,There were no issues.,That,is small.,hummingbird,You say to your friend:,female,small,small,1565034221520,This one is also in the parade.,main1,1,confused
245,NA,congruent,26,Patricia,NA,predicative,You see a collection of plants.,images/plant_parade_big.png,some_college,2,6,.50,flowers,English and Vietnamese,images/sunflower.png,There were no issues.,That,is big.,sunflower,You say to your friend:,female,big,big,1565034221520,This one is also in the collection.,main1,2,confused
245,NA,congruent,26,Patricia,NA,predicative,You see a parade of animals.,images/primates_parade_big.png,some_college,2,6,.50,primates,English and Vietnamese,images/gorilla.png,There were no issues.,That,is big.,gorilla,You say to your friend:,female,big,big,1565034221520,This one is also in the parade.,main1,3,confused
245,NA,congruent,26,Patricia,NA,predicative,You see a parade of animals.,images/fish_parade_small.png,some_college,2,6,.50,fish,English and Vietnamese,images/goldfish.png,There were no issues.,That,is small.,goldfish,You say to your friend:,female,small,small,1565034221520,This one is also in the parade.,main2,1,confused
245,NA,congruent,26,Patricia,NA,predicative,You see a parade of animals.,images/animal_parade_small.png,some_college,2,6,.50,dogs,English and Vietnamese,images/chihuahua.png,There were no issues.,That,is small.,chihuahua,You say to your friend:,female,small,small,1565034221520,This one is also in the parade.,main2,2,confused
245,NA,congruent,26,Patricia,NA,predicative,You see the following items in a landscape.,images/landscape_big.png,some_college,2,6,.50,trees,English and Vietnamese,images/redwood.png,There were no issues.,That,is big.,tree,You say to your friend:,female,big,big,1565034221520,This one is also in the landscape.,main2,3,confused
244,NA,congruent,NA,susan,NA,predicative,You see a parade of animals.,images/animal_parade_small.png,NA,NA,6,NA,dogs,NA,images/chihuahua.png,NA,That,is small.,animal,You say to your friend:,NA,small,small,1565034137525,This one is also in the parade.,main1,1,yes
244,NA,congruent,NA,susan,NA,predicative,You see a collection of plants.,images/plant_parade_big.png,NA,NA,6,NA,flowers,NA,images/sunflower.png,NA,That,is big.,plant,You say to your friend:,NA,big,big,1565034137525,This one is also in the collection.,main1,2,yes
244,NA,congruent,NA,susan,NA,predicative,You see a parade of animals.,images/primates_parade_big.png,NA,NA,6,NA,primates,NA,images/gorilla.png,NA,That,is big.,animal,You say to your friend:,NA,big,big,1565034137525,This one is also in the parade.,main1,3,yes
244,NA,congruent,NA,susan,NA,predicative,You see the following items in a landscape.,images/landscape_small.png,NA,NA,6,NA,trees,NA,images/bonsai.png,NA,That,is small.,plant,You say to your friend:,NA,small,small,1565034137525,This one is also in the landscape.,main2,1,yes
244,NA,congruent,NA,susan,NA,predicative,You see a parade of animals.,images/fish_parade_small.png,NA,NA,6,NA,fish,NA,images/goldfish.png,NA,That,is small.,animal,You say to your friend:,NA,small,small,1565034137525,This one is also in the parade.,main2,2,yes
244,NA,congruent,NA,susan,NA,predicative,You see a parade of animals.,images/birds_parade_big.png,NA,NA,6,NA,birds,NA,images/swan.png,NA,That,is big.,animal,You say to your friend:,NA,big,big,1565034137525,This one is also in the parade.,main2,3,yes
243,NA,incongruent,67,sarah,The timed waits made this work out to $5.06 an hour.,predicative,You see a parade of animals.,images/animal_parade_big.png,some_college,0,6,1.25,dogs,english,images/great-dane.png,NA,That,is small.,squirrel,You say to your friend:,male,small,big,1565034044675,This one is also in the parade.,main1,1,yes
243,NA,incongruent,67,sarah,The timed waits made this work out to $5.06 an hour.,predicative,You see a parade of animals.,images/fish_parade_small.png,some_college,0,6,1.25,fish,english,images/goldfish.png,NA,That,is big.,whale,You say to your friend:,male,big,small,1565034044675,This one is also in the parade.,main1,2,yes
243,NA,incongruent,67,sarah,The timed waits made this work out to $5.06 an hour.,predicative,You see a parade of animals.,images/birds_parade_big.png,some_college,0,6,1.25,birds,english,images/swan.png,NA,That,is small.,butterfly,You say to your friend:,male,small,big,1565034044675,This one is also in the parade.,main1,3,yes
243,NA,incongruent,67,sarah,The timed waits made this work out to $5.06 an hour.,predicative,You see the following items in a landscape.,images/landscape_big.png,some_college,0,6,1.25,trees,english,images/redwood.png,NA,That,is small.,house,You say to your friend:,male,small,big,1565034044675,This one is also in the landscape.,main2,1,yes
243,NA,incongruent,67,sarah,The timed waits made this work out to $5.06 an hour.,predicative,You see a collection of plants.,images/plant_parade_small.png,some_college,0,6,1.25,flowers,english,images/daisy.png,NA,That,is big.,flower,You say to your friend:,male,big,small,1565034044675,This one is also in the collection.,main2,2,yes
243,NA,incongruent,67,sarah,The timed waits made this work out to $5.06 an hour.,predicative,You see a parade of animals.,images/primates_parade_small.png,some_college,0,6,1.25,primates,english,images/spider-monkey.png,NA,That,is big.,flamingo,You say to your friend:,male,big,small,1565034044675,This one is also in the parade.,main2,3,yes
242,NA,congruent,29,barbara,NA,prenominal,You see the following items in a landscape.,images/landscape_small.png,some_college,1,6,0.50,trees,English,images/bonsai.png,"No, thank you",That's a small,NA,bonsai,You say to your friend:,male,small,small,1565034274260,This one is also in the landscape.,main1,1,yes
242,NA,congruent,29,barbara,NA,prenominal,You see a parade of animals.,images/fish_parade_small.png,some_college,1,6,0.50,fish,English,images/goldfish.png,"No, thank you",That's a small,NA,fish,You say to your friend:,male,small,small,1565034274260,This one is also in the parade.,main1,2,yes
242,NA,congruent,29,barbara,NA,prenominal,You see a parade of animals.,images/birds_parade_big.png,some_college,1,6,0.50,birds,English,images/swan.png,"No, thank you",That's a big,NA,bird,You say to your friend:,male,big,big,1565034274260,This one is also in the parade.,main1,3,yes
242,NA,congruent,29,barbara,NA,prenominal,You see a collection of plants.,images/plant_parade_small.png,some_college,1,6,0.50,flowers,English,images/daisy.png,"No, thank you",That's a small,NA,daisy,You say to your friend:,male,small,small,1565034274260,This one is also in the collection.,main2,1,yes
242,NA,congruent,29,barbara,NA,prenominal,You see a parade of animals.,images/primates_parade_big.png,some_college,1,6,0.50,primates,English,images/gorilla.png,"No, thank you",That's a big,NA,primate,You say to your friend:,male,big,big,1565034274260,This one is also in the parade.,main2,2,yes
242,NA,congruent,29,barbara,NA,prenominal,You see a parade of animals.,images/animal_parade_big.png,some_college,1,6,0.50,dogs,English,images/great-dane.png,"No, thank you",That's a big,NA,dog,You say to your friend:,male,big,big,1565034274260,This one is also in the parade.,main2,3,yes
241,NA,incongruent,27,Jennifer,NA,prenominal,You see a parade of animals.,images/primates_parade_big.png,some_college,2,6,0.50,primates,yes,images/gorilla.png,Little bit,That's a small,NA,parade,You say to your friend:,male,small,big,1565033924170,This one is also in the parade.,main1,1,yes
241,NA,incongruent,27,Jennifer,NA,prenominal,You see a parade of animals.,images/animal_parade_small.png,some_college,2,6,0.50,dogs,yes,images/chihuahua.png,Little bit,That's a big,NA,yes,You say to your friend:,male,big,small,1565033924170,This one is also in the parade.,main1,2,yes
241,NA,incongruent,27,Jennifer,NA,prenominal,You see a parade of animals.,images/fish_parade_small.png,some_college,2,6,0.50,fish,yes,images/goldfish.png,Little bit,That's a big,NA,yes,You say to your friend:,male,big,small,1565033924170,This one is also in the parade.,main1,3,yes
241,NA,incongruent,27,Jennifer,NA,prenominal,You see a collection of plants.,images/plant_parade_small.png,some_college,2,6,0.50,flowers,yes,images/daisy.png,Little bit,That's a big,NA,yes,You say to your friend:,male,big,small,1565033924170,This one is also in the collection.,main2,1,yes
241,NA,incongruent,27,Jennifer,NA,prenominal,You see a parade of animals.,images/birds_parade_big.png,some_college,2,6,0.50,birds,yes,images/swan.png,Little bit,That's a small,NA,yes,You say to your friend:,male,small,big,1565033924170,This one is also in the parade.,main2,2,yes
241,NA,incongruent,27,Jennifer,NA,prenominal,You see the following items in a landscape.,images/landscape_big.png,some_college,2,6,0.50,trees,yes,images/redwood.png,Little bit,That's a small,NA,yes,You say to your friend:,male,small,big,1565033924170,This one is also in the landscape.,main2,3,yes
240,NA,congruent,58,patricia,NA,predicative,You see the following items in a landscape.,images/landscape_big.png,some_high_school,1,6,0.50,trees,english,images/redwood.png,no,That,is big.,tree,You say to your friend:,male,big,big,1565034018777,This one is also in the landscape.,main1,1,yes
240,NA,congruent,58,patricia,NA,predicative,You see a parade of animals.,images/primates_parade_big.png,some_high_school,1,6,0.50,primates,english,images/gorilla.png,no,That,is big.,gorilla,You say to your friend:,male,big,big,1565034018777,This one is also in the parade.,main1,2,yes
240,NA,congruent,58,patricia,NA,predicative,You see a parade of animals.,images/fish_parade_small.png,some_high_school,1,6,0.50,fish,english,images/goldfish.png,no,That,is small.,fish,You say to your friend:,male,small,small,1565034018777,This one is also in the parade.,main1,3,yes
240,NA,congruent,58,patricia,NA,predicative,You see a collection of plants.,images/plant_parade_small.png,some_high_school,1,6,0.50,flowers,english,images/daisy.png,no,That,is small.,flower,You say to your friend:,male,small,small,1565034018777,This one is also in the collection.,main2,1,yes
240,NA,congruent,58,patricia,NA,predicative,You see a parade of animals.,images/birds_parade_big.png,some_high_school,1,6,0.50,birds,english,images/swan.png,no,That,is big.,swan,You say to your friend:,male,big,big,1565034018777,This one is also in the parade.,main2,2,yes
240,NA,congruent,58,patricia,NA,predicative,You see a parade of animals.,images/animal_parade_small.png,some_high_school,1,6,0.50,dogs,english,images/chihuahua.png,no,That,is small.,dog,You say to your friend:,male,small,small,1565034018777,This one is also in the parade.,main2,3,yes
239,NA,congruent,25,Mary,NA,prenominal,You see a parade of animals.,images/primates_parade_small.png,graduated_college,2,6,2,primates,english,images/spider-monkey.png,no,That's a small,NA,animal,You say to your friend:,male,small,small,1565032256567,This one is also in the parade.,main1,1,yes
239,NA,congruent,25,Mary,NA,prenominal,You see a parade of animals.,images/fish_parade_big.png,graduated_college,2,6,2,fish,english,images/swordfish.png,no,That's a big,NA,fish,You say to your friend:,male,big,big,1565032256567,This one is also in the parade.,main1,2,yes
239,NA,congruent,25,Mary,NA,prenominal,You see a parade of animals.,images/animal_parade_big.png,graduated_college,2,6,2,dogs,english,images/great-dane.png,no,That's a big,NA,dog,You say to your friend:,male,big,big,1565032256567,This one is also in the parade.,main1,3,yes
239,NA,congruent,25,Mary,NA,prenominal,You see a collection of plants.,images/plant_parade_small.png,graduated_college,2,6,2,flowers,english,images/daisy.png,no,That's a small,NA,plant,You say to your friend:,male,small,small,1565032256567,This one is also in the collection.,main2,1,yes
239,NA,congruent,25,Mary,NA,prenominal,You see the following items in a landscape.,images/landscape_small.png,graduated_college,2,6,2,trees,english,images/bonsai.png,no,That's a small,NA,leaf,You say to your friend:,male,small,small,1565032256567,This one is also in the landscape.,main2,2,yes
239,NA,congruent,25,Mary,NA,prenominal,You see a parade of animals.,images/birds_parade_big.png,graduated_college,2,6,2,birds,english,images/swan.png,no,That's a big,NA,goose,You say to your friend:,male,big,big,1565032256567,This one is also in the parade.,main2,3,yes
238,NA,congruent,28,jennifer,NA,prenominal,You see a parade of animals.,images/birds_parade_big.png,some_college,2,6,0.5,birds,English,images/swan.png,no,That's a big,NA,swan,You say to your friend:,female,big,big,1565033953723,This one is also in the parade.,main1,1,NA
238,NA,congruent,28,jennifer,NA,prenominal,You see a parade of animals.,images/primates_parade_small.png,some_college,2,6,0.5,primates,English,images/spider-monkey.png,no,That's a small,NA,monkey,You say to your friend:,female,small,small,1565033953723,This one is also in the parade.,main1,2,NA
238,NA,congruent,28,jennifer,NA,prenominal,You see a parade of animals.,images/animal_parade_big.png,some_college,2,6,0.5,dogs,English,images/great-dane.png,no,That's a big,NA,dog,You say to your friend:,female,big,big,1565033953723,This one is also in the parade.,main1,3,NA
238,NA,congruent,28,jennifer,NA,prenominal,You see a parade of animals.,images/fish_parade_big.png,some_college,2,6,0.5,fish,English,images/swordfish.png,no,That's a big,NA,swordfish,You say to your friend:,female,big,big,1565033953723,This one is also in the parade.,main2,1,NA
238,NA,congruent,28,jennifer,NA,prenominal,You see a collection of plants.,images/plant_parade_small.png,some_college,2,6,0.5,flowers,English,images/daisy.png,no,That's a small,NA,plant,You say to your friend:,female,small,small,1565033953723,This one is also in the collection.,main2,2,NA
238,NA,congruent,28,jennifer,NA,prenominal,You see the following items in a landscape.,images/landscape_small.png,some_college,2,6,0.5,trees,English,images/bonsai.png,no,That's a small,NA,bonzai tree,You say to your friend:,female,small,small,1565033953723,This one is also in the landscape.,main2,3,NA
237,NA,incongruent,26,elizabeth,NA,predicative,You see a parade of animals.,images/birds_parade_small.png,some_college,2,6,0.5,birds,english,images/hummingbird.png,NA,That,is big.,bird,You say to your friend:,male,big,small,1565033918167,This one is also in the parade.,main1,1,confused
237,NA,incongruent,26,elizabeth,NA,predicative,You see the following items in a landscape.,images/landscape_big.png,some_college,2,6,0.5,trees,english,images/redwood.png,NA,That,is small.,tree,You say to your friend:,male,small,big,1565033918167,This one is also in the landscape.,main1,2,confused
237,NA,incongruent,26,elizabeth,NA,predicative,You see a parade of animals.,images/primates_parade_small.png,some_college,2,6,0.5,primates,english,images/spider-monkey.png,NA,That,is big.,monkey,You say to your friend:,male,big,small,1565033918167,This one is also in the parade.,main1,3,confused
237,NA,incongruent,26,elizabeth,NA,predicative,You see a parade of animals.,images/fish_parade_big.png,some_college,2,6,0.5,fish,english,images/swordfish.png,NA,That,is small.,marlin,You say to your friend:,male,small,big,1565033918167,This one is also in the parade.,main2,1,confused
237,NA,incongruent,26,elizabeth,NA,predicative,You see a collection of plants.,images/plant_parade_small.png,some_college,2,6,0.5,flowers,english,images/daisy.png,NA,That,is big.,flower,You say to your friend:,male,big,small,1565033918167,This one is also in the collection.,main2,2,confused
237,NA,incongruent,26,elizabeth,NA,predicative,You see a parade of animals.,images/animal_parade_big.png,some_college,2,6,0.5,dogs,english,images/great-dane.png,NA,That,is small.,dog,You say to your friend:,male,small,big,1565033918167,This one is also in the parade.,main2,3,confused
236,NA,incongruent,35,linda,none,predicative,You see a collection of plants.,images/plant_parade_big.png,graduated_college,1,6,0.50,flowers,English,images/sunflower.png,no,That,is small.,flower,You say to your friend:,male,small,big,1565033819660,This one is also in the collection.,main1,1,yes
236,NA,incongruent,35,linda,none,predicative,You see a parade of animals.,images/animal_parade_big.png,graduated_college,1,6,0.50,dogs,English,images/great-dane.png,no,That,is small.,dog,You say to your friend:,male,small,big,1565033819660,This one is also in the parade.,main1,2,yes
236,NA,incongruent,35,linda,none,predicative,You see a parade of animals.,images/primates_parade_small.png,graduated_college,1,6,0.50,primates,English,images/spider-monkey.png,no,That,is big.,monkey,You say to your friend:,male,big,small,1565033819660,This one is also in the parade.,main1,3,yes
236,NA,incongruent,35,linda,none,predicative,You see a parade of animals.,images/birds_parade_small.png,graduated_college,1,6,0.50,birds,English,images/hummingbird.png,no,That,is big.,hummingbird,You say to your friend:,male,big,small,1565033819660,This one is also in the parade.,main2,1,yes
236,NA,incongruent,35,linda,none,predicative,You see the following items in a landscape.,images/landscape_big.png,graduated_college,1,6,0.50,trees,English,images/redwood.png,no,That,is small.,tree,You say to your friend:,male,small,big,1565033819660,This one is also in the landscape.,main2,2,yes
236,NA,incongruent,35,linda,none,predicative,You see a parade of animals.,images/fish_parade_small.png,graduated_college,1,6,0.50,fish,English,images/goldfish.png,no,That,is big.,fish,You say to your friend:,male,big,small,1565033819660,This one is also in the parade.,main2,3,yes
235,NA,congruent,27,susan,Nice and quick HIT!,prenominal,You see the following items in a landscape.,images/landscape_big.png,graduated_high_school,2,6,0.60,trees,English,images/redwood.png,No,That's a big,NA,tree,You say to your friend:,male,big,big,1565033815545,This one is also in the landscape.,main1,1,yes
235,NA,congruent,27,susan,Nice and quick HIT!,prenominal,You see a parade of animals.,images/animal_parade_small.png,graduated_high_school,2,6,0.60,dogs,English,images/chihuahua.png,No,That's a small,NA,dog,You say to your friend:,male,small,small,1565033815545,This one is also in the parade.,main1,2,yes
235,NA,congruent,27,susan,Nice and quick HIT!,prenominal,You see a collection of plants.,images/plant_parade_small.png,graduated_high_school,2,6,0.60,flowers,English,images/daisy.png,No,That's a small,NA,twig,You say to your friend:,male,small,small,1565033815545,This one is also in the collection.,main1,3,yes
235,NA,congruent,27,susan,Nice and quick HIT!,prenominal,You see a parade of animals.,images/fish_parade_small.png,graduated_high_school,2,6,0.60,fish,English,images/goldfish.png,No,That's a small,NA,fish,You say to your friend:,male,small,small,1565033815545,This one is also in the parade.,main2,1,yes
235,NA,congruent,27,susan,Nice and quick HIT!,prenominal,You see a parade of animals.,images/primates_parade_big.png,graduated_high_school,2,6,0.60,primates,English,images/gorilla.png,No,That's a big,NA,ape,You say to your friend:,male,big,big,1565033815545,This one is also in the parade.,main2,2,yes
235,NA,congruent,27,susan,Nice and quick HIT!,prenominal,You see a parade of animals.,images/birds_parade_big.png,graduated_high_school,2,6,0.60,birds,English,images/swan.png,No,That's a big,NA,bird,You say to your friend:,male,big,big,1565033815545,This one is also in the parade.,main2,3,yes
234,NA,congruent,25,jessica,NA,prenominal,You see a parade of animals.,images/animal_parade_small.png,graduated_college,1,6,.7,dogs,Cantonese,images/chihuahua.png,no problems,That's a small,NA,dog,You say to your friend:,male,small,small,1565033625243,This one is also in the parade.,main1,1,yes
234,NA,congruent,25,jessica,NA,prenominal,You see a parade of animals.,images/primates_parade_small.png,graduated_college,1,6,.7,primates,Cantonese,images/spider-monkey.png,no problems,That's a small,NA,monkey,You say to your friend:,male,small,small,1565033625243,This one is also in the parade.,main1,2,yes
234,NA,congruent,25,jessica,NA,prenominal,You see a parade of animals.,images/birds_parade_big.png,graduated_college,1,6,.7,birds,Cantonese,images/swan.png,no problems,That's a big,NA,swan,You say to your friend:,male,big,big,1565033625243,This one is also in the parade.,main1,3,yes
234,NA,congruent,25,jessica,NA,prenominal,You see a parade of animals.,images/fish_parade_big.png,graduated_college,1,6,.7,fish,Cantonese,images/swordfish.png,no problems,That's a big,NA,swordfish,You say to your friend:,male,big,big,1565033625243,This one is also in the parade.,main2,1,yes
234,NA,congruent,25,jessica,NA,prenominal,You see a collection of plants.,images/plant_parade_big.png,graduated_college,1,6,.7,flowers,Cantonese,images/sunflower.png,no problems,That's a big,NA,sunflower,You say to your friend:,male,big,big,1565033625243,This one is also in the collection.,main2,2,yes
234,NA,congruent,25,jessica,NA,prenominal,You see the following items in a landscape.,images/landscape_small.png,graduated_college,1,6,.7,trees,Cantonese,images/bonsai.png,no problems,That's a small,NA,sapling,You say to your friend:,male,small,small,1565033625243,This one is also in the landscape.,main2,3,yes
233,NA,congruent,24,susan,NA,predicative,You see a parade of animals.,images/birds_parade_big.png,graduated_high_school,1,6,.50,birds,NA,images/swan.png,no,That,is big.,swan,You say to your friend:,male,big,big,1565033629352,This one is also in the parade.,main1,1,yes
233,NA,congruent,24,susan,NA,predicative,You see the following items in a landscape.,images/landscape_small.png,graduated_high_school,1,6,.50,trees,NA,images/bonsai.png,no,That,is small.,tree,You say to your friend:,male,small,small,1565033629352,This one is also in the landscape.,main1,2,yes
233,NA,congruent,24,susan,NA,predicative,You see a parade of animals.,images/fish_parade_big.png,graduated_high_school,1,6,.50,fish,NA,images/swordfish.png,no,That,is big.,swordfish,You say to your friend:,male,big,big,1565033629352,This one is also in the parade.,main1,3,yes
233,NA,congruent,24,susan,NA,predicative,You see a parade of animals.,images/primates_parade_small.png,graduated_high_school,1,6,.50,primates,NA,images/spider-monkey.png,no,That,is small.,monkey,You say to your friend:,male,small,small,1565033629352,This one is also in the parade.,main2,1,yes
233,NA,congruent,24,susan,NA,predicative,You see a collection of plants.,images/plant_parade_big.png,graduated_high_school,1,6,.50,flowers,NA,images/sunflower.png,no,That,is big.,flower,You say to your friend:,male,big,big,1565033629352,This one is also in the collection.,main2,2,yes
233,NA,congruent,24,susan,NA,predicative,You see a parade of animals.,images/animal_parade_small.png,graduated_high_school,1,6,.50,dogs,NA,images/chihuahua.png,no,That,is small.,dog,You say to your friend:,male,small,small,1565033629352,This one is also in the parade.,main2,3,yes
232,NA,incongruent,34,jessica,NA,predicative,You see a parade of animals.,images/animal_parade_small.png,higher_degree,2,6,.50,dogs,English,images/chihuahua.png,NA,That,is big.,snake,You say to your friend:,male,big,small,1565033654286,This one is also in the parade.,main1,1,yes
232,NA,incongruent,34,jessica,NA,predicative,You see a collection of plants.,images/plant_parade_big.png,higher_degree,2,6,.50,flowers,English,images/sunflower.png,NA,That,is small.,rose,You say to your friend:,male,small,big,1565033654286,This one is also in the collection.,main1,2,yes
232,NA,incongruent,34,jessica,NA,predicative,You see a parade of animals.,images/fish_parade_big.png,higher_degree,2,6,.50,fish,English,images/swordfish.png,NA,That,is small.,crab,You say to your friend:,male,small,big,1565033654286,This one is also in the parade.,main1,3,yes
232,NA,incongruent,34,jessica,NA,predicative,You see a parade of animals.,images/birds_parade_big.png,higher_degree,2,6,.50,birds,English,images/swan.png,NA,That,is small.,pug,You say to your friend:,male,small,big,1565033654286,This one is also in the parade.,main2,1,yes
232,NA,incongruent,34,jessica,NA,predicative,You see the following items in a landscape.,images/landscape_small.png,higher_degree,2,6,.50,trees,English,images/bonsai.png,NA,That,is big.,sunflower,You say to your friend:,male,big,small,1565033654286,This one is also in the landscape.,main2,2,yes
232,NA,incongruent,34,jessica,NA,predicative,You see a parade of animals.,images/primates_parade_small.png,higher_degree,2,6,.50,primates,English,images/spider-monkey.png,NA,That,is big.,tiger,You say to your friend:,male,big,small,1565033654286,This one is also in the parade.,main2,3,yes
231,NA,congruent,33,Barbara,NA,predicative,You see the following items in a landscape.,images/landscape_small.png,some_college,2,6,.50,trees,English,images/bonsai.png,No,That,is small.,Bush,You say to your friend:,female,small,small,1565033616622,This one is also in the landscape.,main1,1,yes
231,NA,congruent,33,Barbara,NA,predicative,You see a parade of animals.,images/birds_parade_big.png,some_college,2,6,.50,birds,English,images/swan.png,No,That,is big.,swan,You say to your friend:,female,big,big,1565033616622,This one is also in the parade.,main1,2,yes
231,NA,congruent,33,Barbara,NA,predicative,You see a parade of animals.,images/primates_parade_big.png,some_college,2,6,.50,primates,English,images/gorilla.png,No,That,is big.,gorilla,You say to your friend:,female,big,big,1565033616622,This one is also in the parade.,main1,3,yes
231,NA,congruent,33,Barbara,NA,predicative,You see a parade of animals.,images/animal_parade_small.png,some_college,2,6,.50,dogs,English,images/chihuahua.png,No,That,is small.,dog,You say to your friend:,female,small,small,1565033616622,This one is also in the parade.,main2,1,yes
231,NA,congruent,33,Barbara,NA,predicative,You see a collection of plants.,images/plant_parade_small.png,some_college,2,6,.50,flowers,English,images/daisy.png,No,That,is small.,flower,You say to your friend:,female,small,small,1565033616622,This one is also in the collection.,main2,2,yes
231,NA,congruent,33,Barbara,NA,predicative,You see a parade of animals.,images/fish_parade_big.png,some_college,2,6,.50,fish,English,images/swordfish.png,No,That,is big.,swordfish,You say to your friend:,female,big,big,1565033616622,This one is also in the parade.,main2,3,yes
230,NA,incongruent,31,elizabeth,NA,predicative,You see a parade of animals.,images/animal_parade_small.png,graduated_college,2,6,0.5,dogs,english,images/chihuahua.png,no,That,is big.,horse,You say to your friend:,male,big,small,1565033529390,This one is also in the parade.,main1,1,confused
230,NA,incongruent,31,elizabeth,NA,predicative,You see a collection of plants.,images/plant_parade_big.png,graduated_college,2,6,0.5,flowers,english,images/sunflower.png,no,That,is small.,rose,You say to your friend:,male,small,big,1565033529390,This one is also in the collection.,main1,2,confused
230,NA,incongruent,31,elizabeth,NA,predicative,You see the following items in a landscape.,images/landscape_small.png,graduated_college,2,6,0.5,trees,english,images/bonsai.png,no,That,is big.,sunflower,You say to your friend:,male,big,small,1565033529390,This one is also in the landscape.,main1,3,confused
230,NA,incongruent,31,elizabeth,NA,predicative,You see a parade of animals.,images/birds_parade_small.png,graduated_college,2,6,0.5,birds,english,images/hummingbird.png,no,That,is big.,hummingbird,You say to your friend:,male,big,small,1565033529390,This one is also in the parade.,main2,1,confused
230,NA,incongruent,31,elizabeth,NA,predicative,You see a parade of animals.,images/fish_parade_big.png,graduated_college,2,6,0.5,fish,english,images/swordfish.png,no,That,is small.,shark,You say to your friend:,male,small,big,1565033529390,This one is also in the parade.,main2,2,confused
230,NA,incongruent,31,elizabeth,NA,predicative,You see a parade of animals.,images/primates_parade_big.png,graduated_college,2,6,0.5,primates,english,images/gorilla.png,no,That,is small.,gorilla,You say to your friend:,male,small,big,1565033529390,This one is also in the parade.,main2,3,confused
229,NA,congruent,32,linda,NA,predicative,You see a parade of animals.,images/primates_parade_big.png,some_college,1,6,1.00,primates,english,images/gorilla.png,no,That,is big.,gorilla,You say to your friend:,male,big,big,1565033541435,This one is also in the parade.,main1,1,yes
229,NA,congruent,32,linda,NA,predicative,You see a collection of plants.,images/plant_parade_small.png,some_college,1,6,1.00,flowers,english,images/daisy.png,no,That,is small.,plant,You say to your friend:,male,small,small,1565033541435,This one is also in the collection.,main1,2,yes
229,NA,congruent,32,linda,NA,predicative,You see a parade of animals.,images/animal_parade_big.png,some_college,1,6,1.00,dogs,english,images/great-dane.png,no,That,is big.,horse,You say to your friend:,male,big,big,1565033541435,This one is also in the parade.,main1,3,yes
229,NA,congruent,32,linda,NA,predicative,You see a parade of animals.,images/birds_parade_big.png,some_college,1,6,1.00,birds,english,images/swan.png,no,That,is big.,gorilla,You say to your friend:,male,big,big,1565033541435,This one is also in the parade.,main2,1,yes
229,NA,congruent,32,linda,NA,predicative,You see a parade of animals.,images/fish_parade_small.png,some_college,1,6,1.00,fish,english,images/goldfish.png,no,That,is small.,fish,You say to your friend:,male,small,small,1565033541435,This one is also in the parade.,main2,2,yes
229,NA,congruent,32,linda,NA,predicative,You see the following items in a landscape.,images/landscape_small.png,some_college,1,6,1.00,trees,english,images/bonsai.png,no,That,is small.,tree,You say to your friend:,male,small,small,1565033541435,This one is also in the landscape.,main2,3,yes
228,NA,incongruent,57,Margaret,none,prenominal,You see a collection of plants.,images/plant_parade_big.png,graduated_college,1,6,.50,flowers,English,images/sunflower.png,no,That's a small,NA,flower,You say to your friend:,female,small,big,1565033513711,This one is also in the collection.,main1,1,yes
228,NA,incongruent,57,Margaret,none,prenominal,You see a parade of animals.,images/fish_parade_big.png,graduated_college,1,6,.50,fish,English,images/swordfish.png,no,That's a small,NA,sailfish,You say to your friend:,female,small,big,1565033513711,This one is also in the parade.,main1,2,yes
228,NA,incongruent,57,Margaret,none,prenominal,You see the following items in a landscape.,images/landscape_small.png,graduated_college,1,6,.50,trees,English,images/bonsai.png,no,That's a big,NA,bush,You say to your friend:,female,big,small,1565033513711,This one is also in the landscape.,main1,3,yes
228,NA,incongruent,57,Margaret,none,prenominal,You see a parade of animals.,images/primates_parade_big.png,graduated_college,1,6,.50,primates,English,images/gorilla.png,no,That's a small,NA,gorilla,You say to your friend:,female,small,big,1565033513711,This one is also in the parade.,main2,1,yes
228,NA,incongruent,57,Margaret,none,prenominal,You see a parade of animals.,images/animal_parade_small.png,graduated_college,1,6,.50,dogs,English,images/chihuahua.png,no,That's a big,NA,dog,You say to your friend:,female,big,small,1565033513711,This one is also in the parade.,main2,2,yes
228,NA,incongruent,57,Margaret,none,prenominal,You see a parade of animals.,images/birds_parade_small.png,graduated_college,1,6,.50,birds,English,images/hummingbird.png,no,That's a big,NA,bird,You say to your friend:,female,big,small,1565033513711,This one is also in the parade.,main2,3,yes
227,NA,incongruent,25,sarah,NA,prenominal,You see a parade of animals.,images/animal_parade_small.png,some_college,2,6,1.00,dogs,English,images/chihuahua.png,no,That's a big,NA,dog,You say to your friend:,male,big,small,1565033215081,This one is also in the parade.,main1,1,yes
227,NA,incongruent,25,sarah,NA,prenominal,You see a parade of animals.,images/fish_parade_big.png,some_college,2,6,1.00,fish,English,images/swordfish.png,no,That's a small,NA,swordfish,You say to your friend:,male,small,big,1565033215081,This one is also in the parade.,main1,2,yes
227,NA,incongruent,25,sarah,NA,prenominal,You see a parade of animals.,images/primates_parade_small.png,some_college,2,6,1.00,primates,English,images/spider-monkey.png,no,That's a big,NA,monkey,You say to your friend:,male,big,small,1565033215081,This one is also in the parade.,main1,3,yes
227,NA,incongruent,25,sarah,NA,prenominal,You see a collection of plants.,images/plant_parade_big.png,some_college,2,6,1.00,flowers,English,images/sunflower.png,no,That's a small,NA,sunflower,You say to your friend:,male,small,big,1565033215081,This one is also in the collection.,main2,1,yes
227,NA,incongruent,25,sarah,NA,prenominal,You see the following items in a landscape.,images/landscape_small.png,some_college,2,6,1.00,trees,English,images/bonsai.png,no,That's a big,NA,plant,You say to your friend:,male,big,small,1565033215081,This one is also in the landscape.,main2,2,yes
227,NA,incongruent,25,sarah,NA,prenominal,You see a parade of animals.,images/birds_parade_big.png,some_college,2,6,1.00,birds,English,images/swan.png,no,That's a small,NA,swan,You say to your friend:,male,small,big,1565033215081,This one is also in the parade.,main2,3,yes
226,NA,incongruent,38,linda,none,prenominal,You see a parade of animals.,images/animal_parade_small.png,NA,1,6,1.00,dogs,english,images/chihuahua.png,no,That's a big,NA,dog,You say to your friend:,male,big,small,1565033473302,This one is also in the parade.,main1,1,yes
226,NA,incongruent,38,linda,none,prenominal,You see a collection of plants.,images/plant_parade_big.png,NA,1,6,1.00,flowers,english,images/sunflower.png,no,That's a small,NA,flower,You say to your friend:,male,small,big,1565033473302,This one is also in the collection.,main1,2,yes
226,NA,incongruent,38,linda,none,prenominal,You see a parade of animals.,images/fish_parade_big.png,NA,1,6,1.00,fish,english,images/swordfish.png,no,That's a small,NA,marlin,You say to your friend:,male,small,big,1565033473302,This one is also in the parade.,main1,3,yes
226,NA,incongruent,38,linda,none,prenominal,You see the following items in a landscape.,images/landscape_big.png,NA,1,6,1.00,trees,english,images/redwood.png,no,That's a small,NA,tree,You say to your friend:,male,small,big,1565033473302,This one is also in the landscape.,main2,1,yes
226,NA,incongruent,38,linda,none,prenominal,You see a parade of animals.,images/birds_parade_small.png,NA,1,6,1.00,birds,english,images/hummingbird.png,no,That's a big,NA,hummingbird,You say to your friend:,male,big,small,1565033473302,This one is also in the parade.,main2,2,yes
226,NA,incongruent,38,linda,none,prenominal,You see a parade of animals.,images/primates_parade_small.png,NA,1,6,1.00,primates,english,images/spider-monkey.png,no,That's a big,NA,monkey,You say to your friend:,male,big,small,1565033473302,This one is also in the parade.,main2,3,yes
225,NA,congruent,25,linda,NA,predicative,You see the following items in a landscape.,images/landscape_small.png,some_college,2,6,1.00,trees,English,images/bonsai.png,None :),That,is small.,tree,You say to your friend:,female,small,small,1565033311345,This one is also in the landscape.,main1,1,yes
225,NA,congruent,25,linda,NA,predicative,You see a parade of animals.,images/birds_parade_big.png,some_college,2,6,1.00,birds,English,images/swan.png,None :),That,is big.,swan,You say to your friend:,female,big,big,1565033311345,This one is also in the parade.,main1,2,yes
225,NA,congruent,25,linda,NA,predicative,You see a parade of animals.,images/animal_parade_big.png,some_college,2,6,1.00,dogs,English,images/great-dane.png,None :),That,is big.,dog,You say to your friend:,female,big,big,1565033311345,This one is also in the parade.,main1,3,yes
225,NA,congruent,25,linda,NA,predicative,You see a collection of plants.,images/plant_parade_small.png,some_college,2,6,1.00,flowers,English,images/daisy.png,None :),That,is small.,flower,You say to your friend:,female,small,small,1565033311345,This one is also in the collection.,main2,1,yes
225,NA,congruent,25,linda,NA,predicative,You see a parade of animals.,images/fish_parade_big.png,some_college,2,6,1.00,fish,English,images/swordfish.png,None :),That,is big.,swordfish,You say to your friend:,female,big,big,1565033311345,This one is also in the parade.,main2,2,yes
225,NA,congruent,25,linda,NA,predicative,You see a parade of animals.,images/primates_parade_small.png,some_college,2,6,1.00,primates,English,images/spider-monkey.png,None :),That,is small.,monkey,You say to your friend:,female,small,small,1565033311345,This one is also in the parade.,main2,3,yes
224,NA,congruent,43,Linda,none,predicative,You see a parade of animals.,images/birds_parade_small.png,graduated_college,2,6,.50,birds,English,images/hummingbird.png,none,That,is small.,hummingbird,You say to your friend:,female,small,small,1565033375855,This one is also in the parade.,main1,1,NA
224,NA,congruent,43,Linda,none,predicative,You see a collection of plants.,images/plant_parade_big.png,graduated_college,2,6,.50,flowers,English,images/sunflower.png,none,That,is big.,sunflower,You say to your friend:,female,big,big,1565033375855,This one is also in the collection.,main1,2,NA
224,NA,congruent,43,Linda,none,predicative,You see a parade of animals.,images/fish_parade_small.png,graduated_college,2,6,.50,fish,English,images/goldfish.png,none,That,is small.,goldfish,You say to your friend:,female,small,small,1565033375855,This one is also in the parade.,main1,3,NA
224,NA,congruent,43,Linda,none,predicative,You see a parade of animals.,images/primates_parade_big.png,graduated_college,2,6,.50,primates,English,images/gorilla.png,none,That,is big.,gorilla,You say to your friend:,female,big,big,1565033375855,This one is also in the parade.,main2,1,NA
224,NA,congruent,43,Linda,none,predicative,You see the following items in a landscape.,images/landscape_big.png,graduated_college,2,6,.50,trees,English,images/redwood.png,none,That,is big.,tree,You say to your friend:,female,big,big,1565033375855,This one is also in the landscape.,main2,2,NA
224,NA,congruent,43,Linda,none,predicative,You see a parade of animals.,images/animal_parade_small.png,graduated_college,2,6,.50,dogs,English,images/chihuahua.png,none,That,is small.,dog,You say to your friend:,female,small,small,1565033375855,This one is also in the parade.,main2,3,NA
223,NA,incongruent,25,linda,NA,predicative,You see the following items in a landscape.,images/landscape_big.png,graduated_college,1,6,0.5,trees,English,images/redwood.png,NA,That,is small.,tree,You say to your friend:,female,small,big,1565033562287,This one is also in the landscape.,main1,1,yes
223,NA,incongruent,25,linda,NA,predicative,You see a parade of animals.,images/fish_parade_big.png,graduated_college,1,6,0.5,fish,English,images/swordfish.png,NA,That,is small.,swordfish,You say to your friend:,female,small,big,1565033562287,This one is also in the parade.,main1,2,yes
223,NA,incongruent,25,linda,NA,predicative,You see a parade of animals.,images/birds_parade_small.png,graduated_college,1,6,0.5,birds,English,images/hummingbird.png,NA,That,is big.,hummingbird,You say to your friend:,female,big,small,1565033562287,This one is also in the parade.,main1,3,yes
223,NA,incongruent,25,linda,NA,predicative,You see a parade of animals.,images/animal_parade_small.png,graduated_college,1,6,0.5,dogs,English,images/chihuahua.png,NA,That,is big.,chihuahua,You say to your friend:,female,big,small,1565033562287,This one is also in the parade.,main2,1,yes
223,NA,incongruent,25,linda,NA,predicative,You see a parade of animals.,images/primates_parade_big.png,graduated_college,1,6,0.5,primates,English,images/gorilla.png,NA,That,is small.,gorilla,You say to your friend:,female,small,big,1565033562287,This one is also in the parade.,main2,2,yes
223,NA,incongruent,25,linda,NA,predicative,You see a collection of plants.,images/plant_parade_small.png,graduated_college,1,6,0.5,flowers,English,images/daisy.png,NA,That,is big.,flower,You say to your friend:,female,big,small,1565033562287,This one is also in the collection.,main2,3,yes
222,NA,congruent,32,Elizabeth,none,predicative,You see a collection of plants.,images/plant_parade_small.png,graduated_college,2,6,05,flowers,English,images/daisy.png,none,That,is small.,Plant,You say to your friend:,male,small,small,1565033402043,This one is also in the collection.,main1,1,NA
222,NA,congruent,32,Elizabeth,none,predicative,You see a parade of animals.,images/fish_parade_big.png,graduated_college,2,6,05,fish,English,images/swordfish.png,none,That,is big.,whale,You say to your friend:,male,big,big,1565033402043,This one is also in the parade.,main1,2,NA
222,NA,congruent,32,Elizabeth,none,predicative,You see the following items in a landscape.,images/landscape_small.png,graduated_college,2,6,05,trees,English,images/bonsai.png,none,That,is small.,tree,You say to your friend:,male,small,small,1565033402043,This one is also in the landscape.,main1,3,NA
222,NA,congruent,32,Elizabeth,none,predicative,You see a parade of animals.,images/animal_parade_big.png,graduated_college,2,6,05,dogs,English,images/great-dane.png,none,That,is big.,dog,You say to your friend:,male,big,big,1565033402043,This one is also in the parade.,main2,1,NA
222,NA,congruent,32,Elizabeth,none,predicative,You see a parade of animals.,images/birds_parade_big.png,graduated_college,2,6,05,birds,English,images/swan.png,none,That,is big.,duck,You say to your friend:,male,big,big,1565033402043,This one is also in the parade.,main2,2,NA
222,NA,congruent,32,Elizabeth,none,predicative,You see a parade of animals.,images/primates_parade_small.png,graduated_college,2,6,05,primates,English,images/spider-monkey.png,none,That,is small.,monkey,You say to your friend:,male,small,small,1565033402043,This one is also in the parade.,main2,3,NA
221,NA,congruent,28,jessica,NA,prenominal,You see the following items in a landscape.,images/landscape_small.png,graduated_college,1,6,0.6,trees,English,images/bonsai.png,No,That's a small,NA,bonsai tree,You say to your friend:,male,small,small,1565033400229,This one is also in the landscape.,main1,1,yes
221,NA,congruent,28,jessica,NA,prenominal,You see a parade of animals.,images/birds_parade_big.png,graduated_college,1,6,0.6,birds,English,images/swan.png,No,That's a big,NA,swan,You say to your friend:,male,big,big,1565033400229,This one is also in the parade.,main1,2,yes
221,NA,congruent,28,jessica,NA,prenominal,You see a parade of animals.,images/animal_parade_big.png,graduated_college,1,6,0.6,dogs,English,images/great-dane.png,No,That's a big,NA,grey dog,You say to your friend:,male,big,big,1565033400229,This one is also in the parade.,main1,3,yes
221,NA,congruent,28,jessica,NA,prenominal,You see a parade of animals.,images/primates_parade_small.png,graduated_college,1,6,0.6,primates,English,images/spider-monkey.png,No,That's a small,NA,straight tail monkey,You say to your friend:,male,small,small,1565033400229,This one is also in the parade.,main2,1,yes
221,NA,congruent,28,jessica,NA,prenominal,You see a parade of animals.,images/fish_parade_small.png,graduated_college,1,6,0.6,fish,English,images/goldfish.png,No,That's a small,NA,goldfish,You say to your friend:,male,small,small,1565033400229,This one is also in the parade.,main2,2,yes
221,NA,congruent,28,jessica,NA,prenominal,You see a collection of plants.,images/plant_parade_big.png,graduated_college,1,6,0.6,flowers,English,images/sunflower.png,No,That's a big,NA,sunflower,You say to your friend:,male,big,big,1565033400229,This one is also in the collection.,main2,3,yes
220,NA,congruent,28,patricia,Thanks,prenominal,You see a parade of animals.,images/birds_parade_small.png,graduated_college,1,6,1.00,birds,English,images/hummingbird.png,NA,That's a small,NA,hummingbird,You say to your friend:,female,small,small,1565033449862,This one is also in the parade.,main1,1,yes
220,NA,congruent,28,patricia,Thanks,prenominal,You see a collection of plants.,images/plant_parade_small.png,graduated_college,1,6,1.00,flowers,English,images/daisy.png,NA,That's a small,NA,flower,You say to your friend:,female,small,small,1565033449862,This one is also in the collection.,main1,2,yes
220,NA,congruent,28,patricia,Thanks,prenominal,You see a parade of animals.,images/primates_parade_small.png,graduated_college,1,6,1.00,primates,English,images/spider-monkey.png,NA,That's a small,NA,monkey,You say to your friend:,female,small,small,1565033449862,This one is also in the parade.,main1,3,yes
220,NA,congruent,28,patricia,Thanks,prenominal,You see a parade of animals.,images/animal_parade_big.png,graduated_college,1,6,1.00,dogs,English,images/great-dane.png,NA,That's a big,NA,dog,You say to your friend:,female,big,big,1565033449862,This one is also in the parade.,main2,1,yes
220,NA,congruent,28,patricia,Thanks,prenominal,You see a parade of animals.,images/fish_parade_big.png,graduated_college,1,6,1.00,fish,English,images/swordfish.png,NA,That's a big,NA,marlin,You say to your friend:,female,big,big,1565033449862,This one is also in the parade.,main2,2,yes
220,NA,congruent,28,patricia,Thanks,prenominal,You see the following items in a landscape.,images/landscape_big.png,graduated_college,1,6,1.00,trees,English,images/redwood.png,NA,That's a big,NA,tree,You say to your friend:,female,big,big,1565033449862,This one is also in the landscape.,main2,3,yes
219,NA,incongruent,29,sarah,NA,prenominal,You see the following items in a landscape.,images/landscape_big.png,graduated_college,1,6,1.0,trees,"English, Portuguese",images/redwood.png,No,That's a small,NA,tree,You say to your friend:,male,small,big,1565033306668,This one is also in the landscape.,main1,1,yes
219,NA,incongruent,29,sarah,NA,prenominal,You see a parade of animals.,images/birds_parade_small.png,graduated_college,1,6,1.0,birds,"English, Portuguese",images/hummingbird.png,No,That's a big,NA,hummingbird,You say to your friend:,male,big,small,1565033306668,This one is also in the parade.,main1,2,yes
219,NA,incongruent,29,sarah,NA,prenominal,You see a collection of plants.,images/plant_parade_big.png,graduated_college,1,6,1.0,flowers,"English, Portuguese",images/sunflower.png,No,That's a small,NA,sunflower,You say to your friend:,male,small,big,1565033306668,This one is also in the collection.,main1,3,yes
219,NA,incongruent,29,sarah,NA,prenominal,You see a parade of animals.,images/primates_parade_small.png,graduated_college,1,6,1.0,primates,"English, Portuguese",images/spider-monkey.png,No,That's a big,NA,monkey,You say to your friend:,male,big,small,1565033306668,This one is also in the parade.,main2,1,yes
219,NA,incongruent,29,sarah,NA,prenominal,You see a parade of animals.,images/animal_parade_small.png,graduated_college,1,6,1.0,dogs,"English, Portuguese",images/chihuahua.png,No,That's a big,NA,dog,You say to your friend:,male,big,small,1565033306668,This one is also in the parade.,main2,2,yes
219,NA,incongruent,29,sarah,NA,prenominal,You see a parade of animals.,images/fish_parade_big.png,graduated_college,1,6,1.0,fish,"English, Portuguese",images/swordfish.png,No,That's a small,NA,fish,You say to your friend:,male,small,big,1565033306668,This one is also in the parade.,main2,3,yes
218,NA,incongruent,25,sarah,NA,prenominal,You see the following items in a landscape.,images/landscape_big.png,some_college,1,6,1,trees,English,images/redwood.png,NA,That's a small,NA,branch,You say to your friend:,male,small,big,1565033355023,This one is also in the landscape.,main1,1,confused
218,NA,incongruent,25,sarah,NA,prenominal,You see a parade of animals.,images/primates_parade_small.png,some_college,1,6,1,primates,English,images/spider-monkey.png,NA,That's a big,NA,tail,You say to your friend:,male,big,small,1565033355023,This one is also in the parade.,main1,2,confused
218,NA,incongruent,25,sarah,NA,prenominal,You see a collection of plants.,images/plant_parade_small.png,some_college,1,6,1,flowers,English,images/daisy.png,NA,That's a big,NA,flower,You say to your friend:,male,big,small,1565033355023,This one is also in the collection.,main1,3,confused
218,NA,incongruent,25,sarah,NA,prenominal,You see a parade of animals.,images/birds_parade_big.png,some_college,1,6,1,birds,English,images/swan.png,NA,That's a small,NA,goose,You say to your friend:,male,small,big,1565033355023,This one is also in the parade.,main2,1,confused
218,NA,incongruent,25,sarah,NA,prenominal,You see a parade of animals.,images/fish_parade_big.png,some_college,1,6,1,fish,English,images/swordfish.png,NA,That's a small,NA,swordfish,You say to your friend:,male,small,big,1565033355023,This one is also in the parade.,main2,2,confused
218,NA,incongruent,25,sarah,NA,prenominal,You see a parade of animals.,images/animal_parade_small.png,some_college,1,6,1,dogs,English,images/chihuahua.png,NA,That's a big,NA,dog,You say to your friend:,male,big,small,1565033355023,This one is also in the parade.,main2,3,confused
217,NA,congruent,43,Barbara,NA,prenominal,You see a collection of plants.,images/plant_parade_small.png,some_college,1,6,0.50,flowers,English,images/daisy.png,No.,That's a small,NA,Daisy,You say to your friend:,female,small,small,1565033310822,This one is also in the collection.,main1,1,yes
217,NA,congruent,43,Barbara,NA,prenominal,You see a parade of animals.,images/fish_parade_big.png,some_college,1,6,0.50,fish,English,images/swordfish.png,No.,That's a big,NA,Swordfish,You say to your friend:,female,big,big,1565033310822,This one is also in the parade.,main1,2,yes
217,NA,congruent,43,Barbara,NA,prenominal,You see a parade of animals.,images/animal_parade_big.png,some_college,1,6,0.50,dogs,English,images/great-dane.png,No.,That's a big,NA,Dog,You say to your friend:,female,big,big,1565033310822,This one is also in the parade.,main1,3,yes
217,NA,congruent,43,Barbara,NA,prenominal,You see a parade of animals.,images/primates_parade_big.png,some_college,1,6,0.50,primates,English,images/gorilla.png,No.,That's a big,NA,Gorilla,You say to your friend:,female,big,big,1565033310822,This one is also in the parade.,main2,1,yes
217,NA,congruent,43,Barbara,NA,prenominal,You see the following items in a landscape.,images/landscape_small.png,some_college,1,6,0.50,trees,English,images/bonsai.png,No.,That's a small,NA,Bonsai Tree,You say to your friend:,female,small,small,1565033310822,This one is also in the landscape.,main2,2,yes
217,NA,congruent,43,Barbara,NA,prenominal,You see a parade of animals.,images/birds_parade_small.png,some_college,1,6,0.50,birds,English,images/hummingbird.png,No.,That's a small,NA,Hummingbird,You say to your friend:,female,small,small,1565033310822,This one is also in the parade.,main2,3,yes
216,NA,congruent,32,susan,NA,predicative,You see a parade of animals.,images/birds_parade_big.png,some_college,2,6,1.00,birds,English,images/swan.png,no,That,is big.,swan,You say to your friend:,female,big,big,1565033406474,This one is also in the parade.,main1,1,yes
216,NA,congruent,32,susan,NA,predicative,You see a parade of animals.,images/animal_parade_small.png,some_college,2,6,1.00,dogs,English,images/chihuahua.png,no,That,is small.,dog,You say to your friend:,female,small,small,1565033406474,This one is also in the parade.,main1,2,yes
216,NA,congruent,32,susan,NA,predicative,You see a parade of animals.,images/fish_parade_big.png,some_college,2,6,1.00,fish,English,images/swordfish.png,no,That,is big.,swordfish,You say to your friend:,female,big,big,1565033406474,This one is also in the parade.,main1,3,yes
216,NA,congruent,32,susan,NA,predicative,You see a collection of plants.,images/plant_parade_small.png,some_college,2,6,1.00,flowers,English,images/daisy.png,no,That,is small.,plant,You say to your friend:,female,small,small,1565033406474,This one is also in the collection.,main2,1,yes
216,NA,congruent,32,susan,NA,predicative,You see a parade of animals.,images/primates_parade_big.png,some_college,2,6,1.00,primates,English,images/gorilla.png,no,That,is big.,gorilla,You say to your friend:,female,big,big,1565033406474,This one is also in the parade.,main2,2,yes
216,NA,congruent,32,susan,NA,predicative,You see the following items in a landscape.,images/landscape_small.png,some_college,2,6,1.00,trees,English,images/bonsai.png,no,That,is small.,tree,You say to your friend:,female,small,small,1565033406474,This one is also in the landscape.,main2,3,yes
215,NA,incongruent,22,jennifer,NA,prenominal,You see a parade of animals.,images/primates_parade_big.png,graduated_college,2,6,.50,primates,English,images/gorilla.png,No.,That's a small,NA,gorilla,You say to your friend:,male,small,big,1565033326165,This one is also in the parade.,main1,1,yes
215,NA,incongruent,22,jennifer,NA,prenominal,You see the following items in a landscape.,images/landscape_small.png,graduated_college,2,6,.50,trees,English,images/bonsai.png,No.,That's a big,NA,tree,You say to your friend:,male,big,small,1565033326165,This one is also in the landscape.,main1,2,yes
215,NA,incongruent,22,jennifer,NA,prenominal,You see a parade of animals.,images/fish_parade_big.png,graduated_college,2,6,.50,fish,English,images/swordfish.png,No.,That's a small,NA,swordfish,You say to your friend:,male,small,big,1565033326165,This one is also in the parade.,main1,3,yes
215,NA,incongruent,22,jennifer,NA,prenominal,You see a parade of animals.,images/birds_parade_big.png,graduated_college,2,6,.50,birds,English,images/swan.png,No.,That's a small,NA,swan,You say to your friend:,male,small,big,1565033326165,This one is also in the parade.,main2,1,yes
215,NA,incongruent,22,jennifer,NA,prenominal,You see a collection of plants.,images/plant_parade_small.png,graduated_college,2,6,.50,flowers,English,images/daisy.png,No.,That's a big,NA,flower,You say to your friend:,male,big,small,1565033326165,This one is also in the collection.,main2,2,yes
215,NA,incongruent,22,jennifer,NA,prenominal,You see a parade of animals.,images/animal_parade_small.png,graduated_college,2,6,.50,dogs,English,images/chihuahua.png,No.,That's a big,NA,dog,You say to your friend:,male,big,small,1565033326165,This one is also in the parade.,main2,3,yes
214,NA,congruent,59,sarah,NA,prenominal,You see a parade of animals.,images/primates_parade_big.png,some_college,2,6,0.5,primates,English,images/gorilla.png,No,That's a big,NA,gorilla,You say to your friend:,female,big,big,1565033260020,This one is also in the parade.,main1,1,yes
214,NA,congruent,59,sarah,NA,prenominal,You see a collection of plants.,images/plant_parade_small.png,some_college,2,6,0.5,flowers,English,images/daisy.png,No,That's a small,NA,flower,You say to your friend:,female,small,small,1565033260020,This one is also in the collection.,main1,2,yes
214,NA,congruent,59,sarah,NA,prenominal,You see a parade of animals.,images/fish_parade_small.png,some_college,2,6,0.5,fish,English,images/goldfish.png,No,That's a small,NA,fish,You say to your friend:,female,small,small,1565033260020,This one is also in the parade.,main1,3,yes
214,NA,congruent,59,sarah,NA,prenominal,You see a parade of animals.,images/birds_parade_small.png,some_college,2,6,0.5,birds,English,images/hummingbird.png,No,That's a small,NA,hummingbird,You say to your friend:,female,small,small,1565033260020,This one is also in the parade.,main2,1,yes
214,NA,congruent,59,sarah,NA,prenominal,You see the following items in a landscape.,images/landscape_big.png,some_college,2,6,0.5,trees,English,images/redwood.png,No,That's a big,NA,tree,You say to your friend:,female,big,big,1565033260020,This one is also in the landscape.,main2,2,yes
214,NA,congruent,59,sarah,NA,prenominal,You see a parade of animals.,images/animal_parade_big.png,some_college,2,6,0.5,dogs,English,images/great-dane.png,No,That's a big,NA,dog,You say to your friend:,female,big,big,1565033260020,This one is also in the parade.,main2,3,yes
213,NA,incongruent,25,jessica,NA,prenominal,You see the following items in a landscape.,images/landscape_small.png,some_college,1,6,0.50,trees,English,images/bonsai.png,NA,That's a big,NA,bonsai,You say to your friend:,male,big,small,1565033316253,This one is also in the landscape.,main1,1,yes
213,NA,incongruent,25,jessica,NA,prenominal,You see a parade of animals.,images/birds_parade_big.png,some_college,1,6,0.50,birds,English,images/swan.png,NA,That's a small,NA,swan,You say to your friend:,male,small,big,1565033316253,This one is also in the parade.,main1,2,yes
213,NA,incongruent,25,jessica,NA,prenominal,You see a parade of animals.,images/primates_parade_big.png,some_college,1,6,0.50,primates,English,images/gorilla.png,NA,That's a small,NA,gorilla,You say to your friend:,male,small,big,1565033316253,This one is also in the parade.,main1,3,yes
213,NA,incongruent,25,jessica,NA,prenominal,You see a parade of animals.,images/fish_parade_big.png,some_college,1,6,0.50,fish,English,images/swordfish.png,NA,That's a small,NA,marlin,You say to your friend:,male,small,big,1565033316253,This one is also in the parade.,main2,1,yes
213,NA,incongruent,25,jessica,NA,prenominal,You see a parade of animals.,images/animal_parade_small.png,some_college,1,6,0.50,dogs,English,images/chihuahua.png,NA,That's a big,NA,dog,You say to your friend:,male,big,small,1565033316253,This one is also in the parade.,main2,2,yes
213,NA,incongruent,25,jessica,NA,prenominal,You see a collection of plants.,images/plant_parade_small.png,some_college,1,6,0.50,flowers,English,images/daisy.png,NA,That's a big,NA,plant,You say to your friend:,male,big,small,1565033316253,This one is also in the collection.,main2,3,yes
212,NA,congruent,36,jennifer,n/a,prenominal,You see a parade of animals.,images/fish_parade_big.png,graduated_college,1,6,2.00,fish,english,images/swordfish.png,no,That's a big,NA,shark,You say to your friend:,male,big,big,1565033075278,This one is also in the parade.,main1,1,yes
212,NA,congruent,36,jennifer,n/a,prenominal,You see the following items in a landscape.,images/landscape_small.png,graduated_college,1,6,2.00,trees,english,images/bonsai.png,no,That's a small,NA,plant,You say to your friend:,male,small,small,1565033075278,This one is also in the landscape.,main1,2,yes
212,NA,congruent,36,jennifer,n/a,prenominal,You see a parade of animals.,images/primates_parade_small.png,graduated_college,1,6,2.00,primates,english,images/spider-monkey.png,no,That's a small,NA,monkey,You say to your friend:,male,small,small,1565033075278,This one is also in the parade.,main1,3,yes
212,NA,congruent,36,jennifer,n/a,prenominal,You see a collection of plants.,images/plant_parade_big.png,graduated_college,1,6,2.00,flowers,english,images/sunflower.png,no,That's a big,NA,flower,You say to your friend:,male,big,big,1565033075278,This one is also in the collection.,main2,1,yes
212,NA,congruent,36,jennifer,n/a,prenominal,You see a parade of animals.,images/animal_parade_small.png,graduated_college,1,6,2.00,dogs,english,images/chihuahua.png,no,That's a small,NA,wolf,You say to your friend:,male,small,small,1565033075278,This one is also in the parade.,main2,2,yes
212,NA,congruent,36,jennifer,n/a,prenominal,You see a parade of animals.,images/birds_parade_big.png,graduated_college,1,6,2.00,birds,english,images/swan.png,no,That's a big,NA,duck,You say to your friend:,male,big,big,1565033075278,This one is also in the parade.,main2,3,yes
211,NA,incongruent,36,sarah,NA,prenominal,You see the following items in a landscape.,images/landscape_small.png,some_college,0,6,.50,trees,English,images/bonsai.png,No,That's a big,NA,tree,You say to your friend:,female,big,small,1565033129343,This one is also in the landscape.,main1,1,confused
211,NA,incongruent,36,sarah,NA,prenominal,You see a parade of animals.,images/birds_parade_small.png,some_college,0,6,.50,birds,English,images/hummingbird.png,No,That's a big,NA,gorilla,You say to your friend:,female,big,small,1565033129343,This one is also in the parade.,main1,2,confused
211,NA,incongruent,36,sarah,NA,prenominal,You see a parade of animals.,images/fish_parade_big.png,some_college,0,6,.50,fish,English,images/swordfish.png,No,That's a small,NA,crab,You say to your friend:,female,small,big,1565033129343,This one is also in the parade.,main1,3,confused
211,NA,incongruent,36,sarah,NA,prenominal,You see a parade of animals.,images/animal_parade_big.png,some_college,0,6,.50,dogs,English,images/great-dane.png,No,That's a small,NA,squirrel,You say to your friend:,female,small,big,1565033129343,This one is also in the parade.,main2,1,confused
211,NA,incongruent,36,sarah,NA,prenominal,You see a parade of animals.,images/primates_parade_big.png,some_college,0,6,.50,primates,English,images/gorilla.png,No,That's a small,NA,koala,You say to your friend:,female,small,big,1565033129343,This one is also in the parade.,main2,2,confused
211,NA,incongruent,36,sarah,NA,prenominal,You see a collection of plants.,images/plant_parade_small.png,some_college,0,6,.50,flowers,English,images/daisy.png,No,That's a big,NA,tree,You say to your friend:,female,big,small,1565033129343,This one is also in the collection.,main2,3,confused
210,NA,congruent,33,MARGARET,NA,predicative,You see a parade of animals.,images/animal_parade_small.png,graduated_college,1,6,0.3,dogs,ENGLISH,images/chihuahua.png,NA,That,is small.,DOG,You say to your friend:,male,small,small,1565032761165,This one is also in the parade.,main1,1,yes
210,NA,congruent,33,MARGARET,NA,predicative,You see a parade of animals.,images/primates_parade_small.png,graduated_college,1,6,0.3,primates,ENGLISH,images/spider-monkey.png,NA,That,is small.,MONKEY,You say to your friend:,male,small,small,1565032761165,This one is also in the parade.,main1,2,yes
210,NA,congruent,33,MARGARET,NA,predicative,You see a parade of animals.,images/fish_parade_small.png,graduated_college,1,6,0.3,fish,ENGLISH,images/goldfish.png,NA,That,is small.,FISH,You say to your friend:,male,small,small,1565032761165,This one is also in the parade.,main1,3,yes
210,NA,congruent,33,MARGARET,NA,predicative,You see a collection of plants.,images/plant_parade_big.png,graduated_college,1,6,0.3,flowers,ENGLISH,images/sunflower.png,NA,That,is big.,TREE,You say to your friend:,male,big,big,1565032761165,This one is also in the collection.,main2,1,yes
210,NA,congruent,33,MARGARET,NA,predicative,You see a parade of animals.,images/birds_parade_big.png,graduated_college,1,6,0.3,birds,ENGLISH,images/swan.png,NA,That,is big.,CORILA,You say to your friend:,male,big,big,1565032761165,This one is also in the parade.,main2,2,yes
210,NA,congruent,33,MARGARET,NA,predicative,You see the following items in a landscape.,images/landscape_big.png,graduated_college,1,6,0.3,trees,ENGLISH,images/redwood.png,NA,That,is big.,TREE,You say to your friend:,male,big,big,1565032761165,This one is also in the landscape.,main2,3,yes
209,NA,incongruent,31,elizabeth,NA,prenominal,You see a collection of plants.,images/plant_parade_big.png,graduated_college,1,6,.6,flowers,english,images/sunflower.png,NA,That's a small,NA,sunflower,You say to your friend:,female,small,big,1565033117442,This one is also in the collection.,main1,1,yes
209,NA,incongruent,31,elizabeth,NA,prenominal,You see a parade of animals.,images/birds_parade_big.png,graduated_college,1,6,.6,birds,english,images/swan.png,NA,That's a small,NA,swan,You say to your friend:,female,small,big,1565033117442,This one is also in the parade.,main1,2,yes
209,NA,incongruent,31,elizabeth,NA,prenominal,You see a parade of animals.,images/animal_parade_big.png,graduated_college,1,6,.6,dogs,english,images/great-dane.png,NA,That's a small,NA,dog,You say to your friend:,female,small,big,1565033117442,This one is also in the parade.,main1,3,yes
209,NA,incongruent,31,elizabeth,NA,prenominal,You see a parade of animals.,images/primates_parade_small.png,graduated_college,1,6,.6,primates,english,images/spider-monkey.png,NA,That's a big,NA,monkey,You say to your friend:,female,big,small,1565033117442,This one is also in the parade.,main2,1,yes
209,NA,incongruent,31,elizabeth,NA,prenominal,You see the following items in a landscape.,images/landscape_small.png,graduated_college,1,6,.6,trees,english,images/bonsai.png,NA,That's a big,NA,tree,You say to your friend:,female,big,small,1565033117442,This one is also in the landscape.,main2,2,yes
209,NA,incongruent,31,elizabeth,NA,prenominal,You see a parade of animals.,images/fish_parade_small.png,graduated_college,1,6,.6,fish,english,images/goldfish.png,NA,That's a big,NA,gold fish,You say to your friend:,female,big,small,1565033117442,This one is also in the parade.,main2,3,yes
208,NA,congruent,36,patricia,NA,predicative,You see a parade of animals.,images/animal_parade_big.png,graduated_college,1,6,.5,dogs,English,images/great-dane.png,NA,That,is big.,dog,You say to your friend:,male,big,big,1565033164926,This one is also in the parade.,main1,1,yes
208,NA,congruent,36,patricia,NA,predicative,You see a parade of animals.,images/birds_parade_small.png,graduated_college,1,6,.5,birds,English,images/hummingbird.png,NA,That,is small.,bird,You say to your friend:,male,small,small,1565033164926,This one is also in the parade.,main1,2,yes
208,NA,congruent,36,patricia,NA,predicative,You see a collection of plants.,images/plant_parade_big.png,graduated_college,1,6,.5,flowers,English,images/sunflower.png,NA,That,is big.,flower,You say to your friend:,male,big,big,1565033164926,This one is also in the collection.,main1,3,yes
208,NA,congruent,36,patricia,NA,predicative,You see the following items in a landscape.,images/landscape_big.png,graduated_college,1,6,.5,trees,English,images/redwood.png,NA,That,is big.,tree,You say to your friend:,male,big,big,1565033164926,This one is also in the landscape.,main2,1,yes
208,NA,congruent,36,patricia,NA,predicative,You see a parade of animals.,images/primates_parade_small.png,graduated_college,1,6,.5,primates,English,images/spider-monkey.png,NA,That,is small.,monkey,You say to your friend:,male,small,small,1565033164926,This one is also in the parade.,main2,2,yes
208,NA,congruent,36,patricia,NA,predicative,You see a parade of animals.,images/fish_parade_small.png,graduated_college,1,6,.5,fish,English,images/goldfish.png,NA,That,is small.,fish,You say to your friend:,male,small,small,1565033164926,This one is also in the parade.,main2,3,yes
207,NA,congruent,59,sarah,NA,prenominal,You see a collection of plants.,images/plant_parade_small.png,higher_degree,2,6,.75,flowers,English,images/daisy.png,no,That's a small,NA,flower,You say to your friend:,female,small,small,1565032865737,This one is also in the collection.,main1,1,yes
207,NA,congruent,59,sarah,NA,prenominal,You see a parade of animals.,images/primates_parade_big.png,higher_degree,2,6,.75,primates,English,images/gorilla.png,no,That's a big,NA,gorilla,You say to your friend:,female,big,big,1565032865737,This one is also in the parade.,main1,2,yes
207,NA,congruent,59,sarah,NA,prenominal,You see a parade of animals.,images/animal_parade_big.png,higher_degree,2,6,.75,dogs,English,images/great-dane.png,no,That's a big,NA,dog,You say to your friend:,female,big,big,1565032865737,This one is also in the parade.,main1,3,yes
207,NA,congruent,59,sarah,NA,prenominal,You see a parade of animals.,images/fish_parade_big.png,higher_degree,2,6,.75,fish,English,images/swordfish.png,no,That's a big,NA,swordfish,You say to your friend:,female,big,big,1565032865737,This one is also in the parade.,main2,1,yes
207,NA,congruent,59,sarah,NA,prenominal,You see a parade of animals.,images/birds_parade_small.png,higher_degree,2,6,.75,birds,English,images/hummingbird.png,no,That's a small,NA,hummingbird,You say to your friend:,female,small,small,1565032865737,This one is also in the parade.,main2,2,yes
207,NA,congruent,59,sarah,NA,prenominal,You see the following items in a landscape.,images/landscape_small.png,higher_degree,2,6,.75,trees,English,images/bonsai.png,no,That's a small,NA,bonsai,You say to your friend:,female,small,small,1565032865737,This one is also in the landscape.,main2,3,yes
206,NA,incongruent,37,jessica,NA,predicative,You see a collection of plants.,images/plant_parade_big.png,graduated_high_school,2,6,.50,flowers,English,images/sunflower.png,NA,That,is small.,flower,You say to your friend:,male,small,big,1565033118839,This one is also in the collection.,main1,1,yes
206,NA,incongruent,37,jessica,NA,predicative,You see a parade of animals.,images/birds_parade_big.png,graduated_high_school,2,6,.50,birds,English,images/swan.png,NA,That,is small.,swan,You say to your friend:,male,small,big,1565033118839,This one is also in the parade.,main1,2,yes
206,NA,incongruent,37,jessica,NA,predicative,You see a parade of animals.,images/fish_parade_small.png,graduated_high_school,2,6,.50,fish,English,images/goldfish.png,NA,That,is big.,fish,You say to your friend:,male,big,small,1565033118839,This one is also in the parade.,main1,3,yes
206,NA,incongruent,37,jessica,NA,predicative,You see a parade of animals.,images/primates_parade_small.png,graduated_high_school,2,6,.50,primates,English,images/spider-monkey.png,NA,That,is big.,monkey,You say to your friend:,male,big,small,1565033118839,This one is also in the parade.,main2,1,yes
206,NA,incongruent,37,jessica,NA,predicative,You see a parade of animals.,images/animal_parade_small.png,graduated_high_school,2,6,.50,dogs,English,images/chihuahua.png,NA,That,is big.,dog,You say to your friend:,male,big,small,1565033118839,This one is also in the parade.,main2,2,yes
206,NA,incongruent,37,jessica,NA,predicative,You see the following items in a landscape.,images/landscape_big.png,graduated_high_school,2,6,.50,trees,English,images/redwood.png,NA,That,is small.,tree,You say to your friend:,male,small,big,1565033118839,This one is also in the landscape.,main2,3,yes
205,NA,congruent,31,Linda,NA,prenominal,You see a parade of animals.,images/animal_parade_small.png,graduated_college,2,6,.50,dogs,English,images/chihuahua.png,no,That's a small,NA,dog,You say to your friend:,male,small,small,1565033037143,This one is also in the parade.,main1,1,yes
205,NA,congruent,31,Linda,NA,prenominal,You see a collection of plants.,images/plant_parade_big.png,graduated_college,2,6,.50,flowers,English,images/sunflower.png,no,That's a big,NA,sunflower,You say to your friend:,male,big,big,1565033037143,This one is also in the collection.,main1,2,yes
205,NA,congruent,31,Linda,NA,prenominal,You see the following items in a landscape.,images/landscape_small.png,graduated_college,2,6,.50,trees,English,images/bonsai.png,no,That's a small,NA,bonzai,You say to your friend:,male,small,small,1565033037143,This one is also in the landscape.,main1,3,yes
205,NA,congruent,31,Linda,NA,prenominal,You see a parade of animals.,images/fish_parade_big.png,graduated_college,2,6,.50,fish,English,images/swordfish.png,no,That's a big,NA,swordfish,You say to your friend:,male,big,big,1565033037143,This one is also in the parade.,main2,1,yes
205,NA,congruent,31,Linda,NA,prenominal,You see a parade of animals.,images/primates_parade_small.png,graduated_college,2,6,.50,primates,English,images/spider-monkey.png,no,That's a small,NA,monkey,You say to your friend:,male,small,small,1565033037143,This one is also in the parade.,main2,2,yes
205,NA,congruent,31,Linda,NA,prenominal,You see a parade of animals.,images/birds_parade_big.png,graduated_college,2,6,.50,birds,English,images/swan.png,no,That's a big,NA,swan,You say to your friend:,male,big,big,1565033037143,This one is also in the parade.,main2,3,yes
204,NA,congruent,22,linda,NA,predicative,You see a parade of animals.,images/fish_parade_small.png,some_college,1,6,0.50,fish,English,images/goldfish.png,No,That,is small.,fish,You say to your friend:,male,small,small,1565033082381,This one is also in the parade.,main1,1,yes
204,NA,congruent,22,linda,NA,predicative,You see a collection of plants.,images/plant_parade_big.png,some_college,1,6,0.50,flowers,English,images/sunflower.png,No,That,is big.,plant,You say to your friend:,male,big,big,1565033082381,This one is also in the collection.,main1,2,yes
204,NA,congruent,22,linda,NA,predicative,You see a parade of animals.,images/animal_parade_big.png,some_college,1,6,0.50,dogs,English,images/great-dane.png,No,That,is big.,dog,You say to your friend:,male,big,big,1565033082381,This one is also in the parade.,main1,3,yes
204,NA,congruent,22,linda,NA,predicative,You see a parade of animals.,images/primates_parade_big.png,some_college,1,6,0.50,primates,English,images/gorilla.png,No,That,is big.,gorilla,You say to your friend:,male,big,big,1565033082381,This one is also in the parade.,main2,1,yes
204,NA,congruent,22,linda,NA,predicative,You see the following items in a landscape.,images/landscape_small.png,some_college,1,6,0.50,trees,English,images/bonsai.png,No,That,is small.,plant,You say to your friend:,male,small,small,1565033082381,This one is also in the landscape.,main2,2,yes
204,NA,congruent,22,linda,NA,predicative,You see a parade of animals.,images/birds_parade_small.png,some_college,1,6,0.50,birds,English,images/hummingbird.png,No,That,is small.,bird,You say to your friend:,male,small,small,1565033082381,This one is also in the parade.,main2,3,yes
203,NA,incongruent,29,barbara,NA,prenominal,You see a parade of animals.,images/birds_parade_big.png,higher_degree,2,6,0.5,birds,english,images/swan.png,no,That's a small,NA,swan,You say to your friend:,female,small,big,1565033056211,This one is also in the parade.,main1,1,confused
203,NA,incongruent,29,barbara,NA,prenominal,You see a parade of animals.,images/animal_parade_small.png,higher_degree,2,6,0.5,dogs,english,images/chihuahua.png,no,That's a big,NA,chihuaha,You say to your friend:,female,big,small,1565033056211,This one is also in the parade.,main1,2,confused
203,NA,incongruent,29,barbara,NA,prenominal,You see a parade of animals.,images/primates_parade_big.png,higher_degree,2,6,0.5,primates,english,images/gorilla.png,no,That's a small,NA,gorilla,You say to your friend:,female,small,big,1565033056211,This one is also in the parade.,main1,3,confused
203,NA,incongruent,29,barbara,NA,prenominal,You see the following items in a landscape.,images/landscape_small.png,higher_degree,2,6,0.5,trees,english,images/bonsai.png,no,That's a big,NA,bonsai,You say to your friend:,female,big,small,1565033056211,This one is also in the landscape.,main2,1,confused
203,NA,incongruent,29,barbara,NA,prenominal,You see a collection of plants.,images/plant_parade_big.png,higher_degree,2,6,0.5,flowers,english,images/sunflower.png,no,That's a small,NA,sunflower,You say to your friend:,female,small,big,1565033056211,This one is also in the collection.,main2,2,confused
203,NA,incongruent,29,barbara,NA,prenominal,You see a parade of animals.,images/fish_parade_small.png,higher_degree,2,6,0.5,fish,english,images/goldfish.png,no,That's a big,NA,goldfish,You say to your friend:,female,big,small,1565033056211,This one is also in the parade.,main2,3,confused
202,NA,congruent,30,patricia,it was fun thanks so much,predicative,You see a collection of plants.,images/plant_parade_small.png,graduated_college,1,6,1,flowers,english,images/daisy.png,no,That,is small.,plant,You say to your friend:,female,small,small,1565032945949,This one is also in the collection.,main1,1,yes
202,NA,congruent,30,patricia,it was fun thanks so much,predicative,You see a parade of animals.,images/fish_parade_big.png,graduated_college,1,6,1,fish,english,images/swordfish.png,no,That,is big.,swordfish,You say to your friend:,female,big,big,1565032945949,This one is also in the parade.,main1,2,yes
202,NA,congruent,30,patricia,it was fun thanks so much,predicative,You see a parade of animals.,images/animal_parade_small.png,graduated_college,1,6,1,dogs,english,images/chihuahua.png,no,That,is small.,dog,You say to your friend:,female,small,small,1565032945949,This one is also in the parade.,main1,3,yes
202,NA,congruent,30,patricia,it was fun thanks so much,predicative,You see a parade of animals.,images/birds_parade_small.png,graduated_college,1,6,1,birds,english,images/hummingbird.png,no,That,is small.,bird,You say to your friend:,female,small,small,1565032945949,This one is also in the parade.,main2,1,yes
202,NA,congruent,30,patricia,it was fun thanks so much,predicative,You see a parade of animals.,images/primates_parade_big.png,graduated_college,1,6,1,primates,english,images/gorilla.png,no,That,is big.,gorilla,You say to your friend:,female,big,big,1565032945949,This one is also in the parade.,main2,2,yes
202,NA,congruent,30,patricia,it was fun thanks so much,predicative,You see the following items in a landscape.,images/landscape_big.png,graduated_college,1,6,1,trees,english,images/redwood.png,no,That,is big.,tree,You say to your friend:,female,big,big,1565032945949,This one is also in the landscape.,main2,3,yes
201,NA,incongruent,29,barbara,NA,prenominal,You see the following items in a landscape.,images/landscape_big.png,some_college,1,6,0.75,trees,English,images/redwood.png,na,That's a small,NA,tree,You say to your friend:,male,small,big,1565032861056,This one is also in the landscape.,main1,1,yes
201,NA,incongruent,29,barbara,NA,prenominal,You see a parade of animals.,images/fish_parade_big.png,some_college,1,6,0.75,fish,English,images/swordfish.png,na,That's a small,NA,fish,You say to your friend:,male,small,big,1565032861056,This one is also in the parade.,main1,2,yes
201,NA,incongruent,29,barbara,NA,prenominal,You see a parade of animals.,images/primates_parade_small.png,some_college,1,6,0.75,primates,English,images/spider-monkey.png,na,That's a big,NA,monkey,You say to your friend:,male,big,small,1565032861056,This one is also in the parade.,main1,3,yes
201,NA,incongruent,29,barbara,NA,prenominal,You see a parade of animals.,images/animal_parade_big.png,some_college,1,6,0.75,dogs,English,images/great-dane.png,na,That's a small,NA,dog,You say to your friend:,male,small,big,1565032861056,This one is also in the parade.,main2,1,yes
201,NA,incongruent,29,barbara,NA,prenominal,You see a collection of plants.,images/plant_parade_small.png,some_college,1,6,0.75,flowers,English,images/daisy.png,na,That's a big,NA,flower,You say to your friend:,male,big,small,1565032861056,This one is also in the collection.,main2,2,yes
201,NA,incongruent,29,barbara,NA,prenominal,You see a parade of animals.,images/birds_parade_small.png,some_college,1,6,0.75,birds,English,images/hummingbird.png,na,That's a big,NA,bird,You say to your friend:,male,big,small,1565032861056,This one is also in the parade.,main2,3,yes
200,NA,incongruent,37,jessica,NA,prenominal,You see a collection of plants.,images/plant_parade_big.png,graduated_college,2,6,.75,flowers,English,images/sunflower.png,NA,That's a small,NA,plant,You say to your friend:,male,small,big,1565032758696,This one is also in the collection.,main1,1,yes
200,NA,incongruent,37,jessica,NA,prenominal,You see the following items in a landscape.,images/landscape_small.png,graduated_college,2,6,.75,trees,English,images/bonsai.png,NA,That's a big,NA,bonsai tree,You say to your friend:,male,big,small,1565032758696,This one is also in the landscape.,main1,2,yes
200,NA,incongruent,37,jessica,NA,prenominal,You see a parade of animals.,images/animal_parade_big.png,graduated_college,2,6,.75,dogs,English,images/great-dane.png,NA,That's a small,NA,animal,You say to your friend:,male,small,big,1565032758696,This one is also in the parade.,main1,3,yes
200,NA,incongruent,37,jessica,NA,prenominal,You see a parade of animals.,images/primates_parade_big.png,graduated_college,2,6,.75,primates,English,images/gorilla.png,NA,That's a small,NA,gorilla,You say to your friend:,male,small,big,1565032758696,This one is also in the parade.,main2,1,yes
200,NA,incongruent,37,jessica,NA,prenominal,You see a parade of animals.,images/fish_parade_small.png,graduated_college,2,6,.75,fish,English,images/goldfish.png,NA,That's a big,NA,goldfish,You say to your friend:,male,big,small,1565032758696,This one is also in the parade.,main2,2,yes
200,NA,incongruent,37,jessica,NA,prenominal,You see a parade of animals.,images/birds_parade_small.png,graduated_college,2,6,.75,birds,English,images/hummingbird.png,NA,That's a big,NA,hummingbird,You say to your friend:,male,big,small,1565032758696,This one is also in the parade.,main2,3,yes
199,NA,incongruent,26,sarah,no,predicative,You see the following items in a landscape.,images/landscape_small.png,higher_degree,2,6,0.5,trees,English,images/bonsai.png,no,That,is big.,plant,You say to your friend:,female,big,small,1565032689001,This one is also in the landscape.,main1,1,yes
199,NA,incongruent,26,sarah,no,predicative,You see a parade of animals.,images/primates_parade_big.png,higher_degree,2,6,0.5,primates,English,images/gorilla.png,no,That,is small.,ape,You say to your friend:,female,small,big,1565032689001,This one is also in the parade.,main1,2,yes
199,NA,incongruent,26,sarah,no,predicative,You see a parade of animals.,images/fish_parade_big.png,higher_degree,2,6,0.5,fish,English,images/swordfish.png,no,That,is small.,swordfish,You say to your friend:,female,small,big,1565032689001,This one is also in the parade.,main1,3,yes
199,NA,incongruent,26,sarah,no,predicative,You see a collection of plants.,images/plant_parade_small.png,higher_degree,2,6,0.5,flowers,English,images/daisy.png,no,That,is big.,flower,You say to your friend:,female,big,small,1565032689001,This one is also in the collection.,main2,1,yes
199,NA,incongruent,26,sarah,no,predicative,You see a parade of animals.,images/birds_parade_small.png,higher_degree,2,6,0.5,birds,English,images/hummingbird.png,no,That,is big.,hummingbird,You say to your friend:,female,big,small,1565032689001,This one is also in the parade.,main2,2,yes
