submission_id,RT,adj_cond,age,assignment_id,botresponse,comments,condition,context,context_picture,education,enjoyment,experiment_id,fairprice,hit_id,item,languages,picture,problems,question1,question2,response,sentence,sex,size_adj,size_target,startDate,startTime,text,trial_name,trial_number,understand,worker_id
255,,congruent,55,3FDJT1UU75W1HBJIEHT36G2TMB75KX,patricia,This was very interesting,prenominal,You see a parade of animals.,images/birds_parade_small.png,graduated_college,1,6,0.6,3MGHRFQY2LDUJPO5VOJGA9PPI0WY0O,birds,English,images/hummingbird.png,no,That's a small ,,hummingbird,You say to your friend:,female,small,small,Mon Aug 05 2019 16:14:50 GMT-0400 (Eastern Daylight Time),1565036090016,This one is also in the parade.,main1,1,yes,A1BNYBF79IQ89T
255,,congruent,55,3FDJT1UU75W1HBJIEHT36G2TMB75KX,patricia,This was very interesting,prenominal,You see a parade of animals.,images/animal_parade_big.png,graduated_college,1,6,0.6,3MGHRFQY2LDUJPO5VOJGA9PPI0WY0O,dogs,English,images/great-dane.png,no,That's a big ,,dog,You say to your friend:,female,big,big,Mon Aug 05 2019 16:14:50 GMT-0400 (Eastern Daylight Time),1565036090016,This one is also in the parade.,main1,2,yes,A1BNYBF79IQ89T
255,,congruent,55,3FDJT1UU75W1HBJIEHT36G2TMB75KX,patricia,This was very interesting,prenominal,You see a parade of animals.,images/primates_parade_small.png,graduated_college,1,6,0.6,3MGHRFQY2LDUJPO5VOJGA9PPI0WY0O,primates,English,images/spider-monkey.png,no,That's a small ,,monkey,You say to your friend:,female,small,small,Mon Aug 05 2019 16:14:50 GMT-0400 (Eastern Daylight Time),1565036090016,This one is also in the parade.,main1,3,yes,A1BNYBF79IQ89T
255,,congruent,55,3FDJT1UU75W1HBJIEHT36G2TMB75KX,patricia,This was very interesting,prenominal,You see the following items in a landscape.,images/landscape_small.png,graduated_college,1,6,0.6,3MGHRFQY2LDUJPO5VOJGA9PPI0WY0O,trees,English,images/bonsai.png,no,That's a small ,,tree,You say to your friend:,female,small,small,Mon Aug 05 2019 16:14:50 GMT-0400 (Eastern Daylight Time),1565036090016,This one is also in the landscape.,main2,1,yes,A1BNYBF79IQ89T
255,,congruent,55,3FDJT1UU75W1HBJIEHT36G2TMB75KX,patricia,This was very interesting,prenominal,You see a parade of animals.,images/fish_parade_big.png,graduated_college,1,6,0.6,3MGHRFQY2LDUJPO5VOJGA9PPI0WY0O,fish,English,images/swordfish.png,no,That's a big ,,blue and white fish,You say to your friend:,female,big,big,Mon Aug 05 2019 16:14:50 GMT-0400 (Eastern Daylight Time),1565036090016,This one is also in the parade.,main2,2,yes,A1BNYBF79IQ89T
255,,congruent,55,3FDJT1UU75W1HBJIEHT36G2TMB75KX,patricia,This was very interesting,prenominal,You see a collection of plants.,images/plant_parade_big.png,graduated_college,1,6,0.6,3MGHRFQY2LDUJPO5VOJGA9PPI0WY0O,flowers,English,images/sunflower.png,no,That's a big ,,sunflower,You say to your friend:,female,big,big,Mon Aug 05 2019 16:14:50 GMT-0400 (Eastern Daylight Time),1565036090016,This one is also in the collection.,main2,3,yes,A1BNYBF79IQ89T
254,,congruent,28,3ZOTGHDK5JZLD428O5Y468TUK0SSO9,Patricia,,predicative,You see the following items in a landscape.,images/landscape_big.png,graduated_college,1,6,0.60,3B286OTISE50PDRO1QF6PSMEEI0AJY,trees,Spanish,images/redwood.png,none,That , is big.,tree,You say to your friend:,female,big,big,Mon Aug 05 2019 16:05:41 GMT-0400 (Eastern Daylight Time),1565035541012,This one is also in the landscape.,main1,1,yes,AYFOAD75CRBKE
254,,congruent,28,3ZOTGHDK5JZLD428O5Y468TUK0SSO9,Patricia,,predicative,You see a parade of animals.,images/animal_parade_small.png,graduated_college,1,6,0.60,3B286OTISE50PDRO1QF6PSMEEI0AJY,dogs,Spanish,images/chihuahua.png,none,That , is small.,dog,You say to your friend:,female,small,small,Mon Aug 05 2019 16:05:41 GMT-0400 (Eastern Daylight Time),1565035541012,This one is also in the parade.,main1,2,yes,AYFOAD75CRBKE
254,,congruent,28,3ZOTGHDK5JZLD428O5Y468TUK0SSO9,Patricia,,predicative,You see a parade of animals.,images/primates_parade_big.png,graduated_college,1,6,0.60,3B286OTISE50PDRO1QF6PSMEEI0AJY,primates,Spanish,images/gorilla.png,none,That , is big.,gorilla,You say to your friend:,female,big,big,Mon Aug 05 2019 16:05:41 GMT-0400 (Eastern Daylight Time),1565035541012,This one is also in the parade.,main1,3,yes,AYFOAD75CRBKE
254,,congruent,28,3ZOTGHDK5JZLD428O5Y468TUK0SSO9,Patricia,,predicative,You see a parade of animals.,images/fish_parade_big.png,graduated_college,1,6,0.60,3B286OTISE50PDRO1QF6PSMEEI0AJY,fish,Spanish,images/swordfish.png,none,That , is big.,swordfish,You say to your friend:,female,big,big,Mon Aug 05 2019 16:05:41 GMT-0400 (Eastern Daylight Time),1565035541012,This one is also in the parade.,main2,1,yes,AYFOAD75CRBKE
254,,congruent,28,3ZOTGHDK5JZLD428O5Y468TUK0SSO9,Patricia,,predicative,You see a parade of animals.,images/birds_parade_small.png,graduated_college,1,6,0.60,3B286OTISE50PDRO1QF6PSMEEI0AJY,birds,Spanish,images/hummingbird.png,none,That , is small.,hummingbird,You say to your friend:,female,small,small,Mon Aug 05 2019 16:05:41 GMT-0400 (Eastern Daylight Time),1565035541012,This one is also in the parade.,main2,2,yes,AYFOAD75CRBKE
254,,congruent,28,3ZOTGHDK5JZLD428O5Y468TUK0SSO9,Patricia,,predicative,You see a collection of plants.,images/plant_parade_small.png,graduated_college,1,6,0.60,3B286OTISE50PDRO1QF6PSMEEI0AJY,flowers,Spanish,images/daisy.png,none,That , is small.,dandelion,You say to your friend:,female,small,small,Mon Aug 05 2019 16:05:41 GMT-0400 (Eastern Daylight Time),1565035541012,This one is also in the collection.,main2,3,yes,AYFOAD75CRBKE
253,,incongruent,25,35USIKEBNS4Y8L4ZGDVOQEXXC1PN62,susan,n/a,prenominal,You see a parade of animals.,images/birds_parade_big.png,graduated_high_school,1,6,0.50,3ZFRE2BDQ922L54LUMA6XUL2Y1LXZ9,birds,English,images/swan.png,no,That's a small ,,goose,You say to your friend:,male,small,big,Mon Aug 05 2019 14:56:17 GMT-0500 (Central Daylight Time),1565034977301,This one is also in the parade.,main1,1,yes,A3822BB341LIB2
253,,incongruent,25,35USIKEBNS4Y8L4ZGDVOQEXXC1PN62,susan,n/a,prenominal,You see a parade of animals.,images/fish_parade_small.png,graduated_high_school,1,6,0.50,3ZFRE2BDQ922L54LUMA6XUL2Y1LXZ9,fish,English,images/goldfish.png,no,That's a big ,,fish,You say to your friend:,male,big,small,Mon Aug 05 2019 14:56:17 GMT-0500 (Central Daylight Time),1565034977301,This one is also in the parade.,main1,2,yes,A3822BB341LIB2
253,,incongruent,25,35USIKEBNS4Y8L4ZGDVOQEXXC1PN62,susan,n/a,prenominal,You see a parade of animals.,images/primates_parade_small.png,graduated_high_school,1,6,0.50,3ZFRE2BDQ922L54LUMA6XUL2Y1LXZ9,primates,English,images/spider-monkey.png,no,That's a big ,,monkey,You say to your friend:,male,big,small,Mon Aug 05 2019 14:56:17 GMT-0500 (Central Daylight Time),1565034977301,This one is also in the parade.,main1,3,yes,A3822BB341LIB2
253,,incongruent,25,35USIKEBNS4Y8L4ZGDVOQEXXC1PN62,susan,n/a,prenominal,You see a parade of animals.,images/animal_parade_small.png,graduated_high_school,1,6,0.50,3ZFRE2BDQ922L54LUMA6XUL2Y1LXZ9,dogs,English,images/chihuahua.png,no,That's a big ,,dog,You say to your friend:,male,big,small,Mon Aug 05 2019 14:56:17 GMT-0500 (Central Daylight Time),1565034977301,This one is also in the parade.,main2,1,yes,A3822BB341LIB2
253,,incongruent,25,35USIKEBNS4Y8L4ZGDVOQEXXC1PN62,susan,n/a,prenominal,You see the following items in a landscape.,images/landscape_big.png,graduated_high_school,1,6,0.50,3ZFRE2BDQ922L54LUMA6XUL2Y1LXZ9,trees,English,images/redwood.png,no,That's a small ,,tree,You say to your friend:,male,small,big,Mon Aug 05 2019 14:56:17 GMT-0500 (Central Daylight Time),1565034977301,This one is also in the landscape.,main2,2,yes,A3822BB341LIB2
253,,incongruent,25,35USIKEBNS4Y8L4ZGDVOQEXXC1PN62,susan,n/a,prenominal,You see a collection of plants.,images/plant_parade_big.png,graduated_high_school,1,6,0.50,3ZFRE2BDQ922L54LUMA6XUL2Y1LXZ9,flowers,English,images/sunflower.png,no,That's a small ,,flower,You say to your friend:,male,small,big,Mon Aug 05 2019 14:56:17 GMT-0500 (Central Daylight Time),1565034977301,This one is also in the collection.,main2,3,yes,A3822BB341LIB2
252,,congruent,33,31UV0MXWNR0ABGTUEE8RT0NGU7I5IM,margaret,,predicative,You see a parade of animals.,images/fish_parade_small.png,some_college,1,6,1.00,3E6L1VR4XWAJX9TPSN79UPS0PST6F1,fish,English,images/goldfish.png,,That , is small.,goldfish,You say to your friend:,male,small,small,Mon Aug 05 2019 12:54:25 GMT-0700 (Pacific Daylight Time),1565034865884,This one is also in the parade.,main1,1,yes,A3KK1BNF5H0N1Z
252,,congruent,33,31UV0MXWNR0ABGTUEE8RT0NGU7I5IM,margaret,,predicative,You see a parade of animals.,images/primates_parade_big.png,some_college,1,6,1.00,3E6L1VR4XWAJX9TPSN79UPS0PST6F1,primates,English,images/gorilla.png,,That , is big.,Gorilla,You say to your friend:,male,big,big,Mon Aug 05 2019 12:54:25 GMT-0700 (Pacific Daylight Time),1565034865884,This one is also in the parade.,main1,2,yes,A3KK1BNF5H0N1Z
252,,congruent,33,31UV0MXWNR0ABGTUEE8RT0NGU7I5IM,margaret,,predicative,You see the following items in a landscape.,images/landscape_big.png,some_college,1,6,1.00,3E6L1VR4XWAJX9TPSN79UPS0PST6F1,trees,English,images/redwood.png,,That , is big.,tree,You say to your friend:,male,big,big,Mon Aug 05 2019 12:54:25 GMT-0700 (Pacific Daylight Time),1565034865884,This one is also in the landscape.,main1,3,yes,A3KK1BNF5H0N1Z
252,,congruent,33,31UV0MXWNR0ABGTUEE8RT0NGU7I5IM,margaret,,predicative,You see a collection of plants.,images/plant_parade_small.png,some_college,1,6,1.00,3E6L1VR4XWAJX9TPSN79UPS0PST6F1,flowers,English,images/daisy.png,,That , is small.,Leaf,You say to your friend:,male,small,small,Mon Aug 05 2019 12:54:25 GMT-0700 (Pacific Daylight Time),1565034865884,This one is also in the collection.,main2,1,yes,A3KK1BNF5H0N1Z
252,,congruent,33,31UV0MXWNR0ABGTUEE8RT0NGU7I5IM,margaret,,predicative,You see a parade of animals.,images/birds_parade_small.png,some_college,1,6,1.00,3E6L1VR4XWAJX9TPSN79UPS0PST6F1,birds,English,images/hummingbird.png,,That , is small.,Hummingbird,You say to your friend:,male,small,small,Mon Aug 05 2019 12:54:25 GMT-0700 (Pacific Daylight Time),1565034865884,This one is also in the parade.,main2,2,yes,A3KK1BNF5H0N1Z
252,,congruent,33,31UV0MXWNR0ABGTUEE8RT0NGU7I5IM,margaret,,predicative,You see a parade of animals.,images/animal_parade_big.png,some_college,1,6,1.00,3E6L1VR4XWAJX9TPSN79UPS0PST6F1,dogs,English,images/great-dane.png,,That , is big.,dog,You say to your friend:,male,big,big,Mon Aug 05 2019 12:54:25 GMT-0700 (Pacific Daylight Time),1565034865884,This one is also in the parade.,main2,3,yes,A3KK1BNF5H0N1Z
251,,congruent,22,3OLF68YTNAPN7V3L82TNYEQA6TRAF6,Margaret,,predicative,You see a collection of plants.,images/plant_parade_small.png,graduated_college,1,6,.50,335HHSX8CDT2WEZAX03N3GE5MTTDHY,flowers,english,images/daisy.png,,That , is small.,plant,You say to your friend:,male,small,small,Mon Aug 05 2019 15:54:16 GMT-0400 (Eastern Daylight Time),1565034856944,This one is also in the collection.,main1,1,confused,A3J85WP15JFYW0
251,,congruent,22,3OLF68YTNAPN7V3L82TNYEQA6TRAF6,Margaret,,predicative,You see the following items in a landscape.,images/landscape_big.png,graduated_college,1,6,.50,335HHSX8CDT2WEZAX03N3GE5MTTDHY,trees,english,images/redwood.png,,That , is big.,tree,You say to your friend:,male,big,big,Mon Aug 05 2019 15:54:16 GMT-0400 (Eastern Daylight Time),1565034856944,This one is also in the landscape.,main1,2,confused,A3J85WP15JFYW0
251,,congruent,22,3OLF68YTNAPN7V3L82TNYEQA6TRAF6,Margaret,,predicative,You see a parade of animals.,images/animal_parade_small.png,graduated_college,1,6,.50,335HHSX8CDT2WEZAX03N3GE5MTTDHY,dogs,english,images/chihuahua.png,,That , is small.,animal,You say to your friend:,male,small,small,Mon Aug 05 2019 15:54:16 GMT-0400 (Eastern Daylight Time),1565034856944,This one is also in the parade.,main1,3,confused,A3J85WP15JFYW0
251,,congruent,22,3OLF68YTNAPN7V3L82TNYEQA6TRAF6,Margaret,,predicative,You see a parade of animals.,images/fish_parade_small.png,graduated_college,1,6,.50,335HHSX8CDT2WEZAX03N3GE5MTTDHY,fish,english,images/goldfish.png,,That , is small.,fish,You say to your friend:,male,small,small,Mon Aug 05 2019 15:54:16 GMT-0400 (Eastern Daylight Time),1565034856944,This one is also in the parade.,main2,1,confused,A3J85WP15JFYW0
251,,congruent,22,3OLF68YTNAPN7V3L82TNYEQA6TRAF6,Margaret,,predicative,You see a parade of animals.,images/primates_parade_big.png,graduated_college,1,6,.50,335HHSX8CDT2WEZAX03N3GE5MTTDHY,primates,english,images/gorilla.png,,That , is big.,animal,You say to your friend:,male,big,big,Mon Aug 05 2019 15:54:16 GMT-0400 (Eastern Daylight Time),1565034856944,This one is also in the parade.,main2,2,confused,A3J85WP15JFYW0
251,,congruent,22,3OLF68YTNAPN7V3L82TNYEQA6TRAF6,Margaret,,predicative,You see a parade of animals.,images/birds_parade_big.png,graduated_college,1,6,.50,335HHSX8CDT2WEZAX03N3GE5MTTDHY,birds,english,images/swan.png,,That , is big.,bird,You say to your friend:,male,big,big,Mon Aug 05 2019 15:54:16 GMT-0400 (Eastern Daylight Time),1565034856944,This one is also in the parade.,main2,3,confused,A3J85WP15JFYW0
250,,congruent,61,3W2LOLRXLC3QMYHGBO669H7PETYKRS,Jessica ,,predicative,You see the following items in a landscape.,images/landscape_small.png,some_college,2,6,.50,3WA2XVDZEM5RRVTTXCN3C770DRE6EJ,trees,English,images/bonsai.png,no,That , is small.,tree,You say to your friend:,female,small,small,Mon Aug 05 2019 12:50:38 GMT-0700 (Pacific Daylight Time),1565034638730,This one is also in the landscape.,main1,1,yes,A20NITCOBY4775
250,,congruent,61,3W2LOLRXLC3QMYHGBO669H7PETYKRS,Jessica ,,predicative,You see a parade of animals.,images/primates_parade_big.png,some_college,2,6,.50,3WA2XVDZEM5RRVTTXCN3C770DRE6EJ,primates,English,images/gorilla.png,no,That , is big.,gorilla,You say to your friend:,female,big,big,Mon Aug 05 2019 12:50:38 GMT-0700 (Pacific Daylight Time),1565034638730,This one is also in the parade.,main1,2,yes,A20NITCOBY4775
250,,congruent,61,3W2LOLRXLC3QMYHGBO669H7PETYKRS,Jessica ,,predicative,You see a parade of animals.,images/birds_parade_big.png,some_college,2,6,.50,3WA2XVDZEM5RRVTTXCN3C770DRE6EJ,birds,English,images/swan.png,no,That , is big.,swan,You say to your friend:,female,big,big,Mon Aug 05 2019 12:50:38 GMT-0700 (Pacific Daylight Time),1565034638730,This one is also in the parade.,main1,3,yes,A20NITCOBY4775
250,,congruent,61,3W2LOLRXLC3QMYHGBO669H7PETYKRS,Jessica ,,predicative,You see a parade of animals.,images/animal_parade_small.png,some_college,2,6,.50,3WA2XVDZEM5RRVTTXCN3C770DRE6EJ,dogs,English,images/chihuahua.png,no,That , is small.,dog,You say to your friend:,female,small,small,Mon Aug 05 2019 12:50:38 GMT-0700 (Pacific Daylight Time),1565034638730,This one is also in the parade.,main2,1,yes,A20NITCOBY4775
250,,congruent,61,3W2LOLRXLC3QMYHGBO669H7PETYKRS,Jessica ,,predicative,You see a parade of animals.,images/fish_parade_small.png,some_college,2,6,.50,3WA2XVDZEM5RRVTTXCN3C770DRE6EJ,fish,English,images/goldfish.png,no,That , is small.,fish,You say to your friend:,female,small,small,Mon Aug 05 2019 12:50:38 GMT-0700 (Pacific Daylight Time),1565034638730,This one is also in the parade.,main2,2,yes,A20NITCOBY4775
250,,congruent,61,3W2LOLRXLC3QMYHGBO669H7PETYKRS,Jessica ,,predicative,You see a collection of plants.,images/plant_parade_big.png,some_college,2,6,.50,3WA2XVDZEM5RRVTTXCN3C770DRE6EJ,flowers,English,images/sunflower.png,no,That , is big.,sunflower,You say to your friend:,female,big,big,Mon Aug 05 2019 12:50:38 GMT-0700 (Pacific Daylight Time),1565034638730,This one is also in the collection.,main2,3,yes,A20NITCOBY4775
249,,incongruent,34,374TNBHA8CJLU2RX2OIXDZCVGMWYQR,sarah,,predicative,You see a parade of animals.,images/animal_parade_small.png,graduated_college,1,6,.50,3E6L1VR4XWAJX9TPSN79UPS0PST6F1,dogs,english,images/chihuahua.png,Pictures didn't load the first time.,That , is big.,horse,You say to your friend:,female,big,small,Mon Aug 05 2019 14:51:09 GMT-0500 (Central Daylight Time),1565034669867,This one is also in the parade.,main1,1,confused,A3D2GO0IFRFN6R
249,,incongruent,34,374TNBHA8CJLU2RX2OIXDZCVGMWYQR,sarah,,predicative,You see the following items in a landscape.,images/landscape_big.png,graduated_college,1,6,.50,3E6L1VR4XWAJX9TPSN79UPS0PST6F1,trees,english,images/redwood.png,Pictures didn't load the first time.,That , is small.,house,You say to your friend:,female,small,big,Mon Aug 05 2019 14:51:09 GMT-0500 (Central Daylight Time),1565034669867,This one is also in the landscape.,main1,2,confused,A3D2GO0IFRFN6R
249,,incongruent,34,374TNBHA8CJLU2RX2OIXDZCVGMWYQR,sarah,,predicative,You see a parade of animals.,images/fish_parade_small.png,graduated_college,1,6,.50,3E6L1VR4XWAJX9TPSN79UPS0PST6F1,fish,english,images/goldfish.png,Pictures didn't load the first time.,That , is big.,shark,You say to your friend:,female,big,small,Mon Aug 05 2019 14:51:09 GMT-0500 (Central Daylight Time),1565034669867,This one is also in the parade.,main1,3,confused,A3D2GO0IFRFN6R
249,,incongruent,34,374TNBHA8CJLU2RX2OIXDZCVGMWYQR,sarah,,predicative,You see a parade of animals.,images/primates_parade_big.png,graduated_college,1,6,.50,3E6L1VR4XWAJX9TPSN79UPS0PST6F1,primates,english,images/gorilla.png,Pictures didn't load the first time.,That , is small.,koala,You say to your friend:,female,small,big,Mon Aug 05 2019 14:51:09 GMT-0500 (Central Daylight Time),1565034669867,This one is also in the parade.,main2,1,confused,A3D2GO0IFRFN6R
249,,incongruent,34,374TNBHA8CJLU2RX2OIXDZCVGMWYQR,sarah,,predicative,You see a collection of plants.,images/plant_parade_small.png,graduated_college,1,6,.50,3E6L1VR4XWAJX9TPSN79UPS0PST6F1,flowers,english,images/daisy.png,Pictures didn't load the first time.,That , is big.,tree,You say to your friend:,female,big,small,Mon Aug 05 2019 14:51:09 GMT-0500 (Central Daylight Time),1565034669867,This one is also in the collection.,main2,2,confused,A3D2GO0IFRFN6R
249,,incongruent,34,374TNBHA8CJLU2RX2OIXDZCVGMWYQR,sarah,,predicative,You see a parade of animals.,images/birds_parade_big.png,graduated_college,1,6,.50,3E6L1VR4XWAJX9TPSN79UPS0PST6F1,birds,english,images/swan.png,Pictures didn't load the first time.,That , is small.,butterfly,You say to your friend:,female,small,big,Mon Aug 05 2019 14:51:09 GMT-0500 (Central Daylight Time),1565034669867,This one is also in the parade.,main2,3,confused,A3D2GO0IFRFN6R
248,,congruent,58,3IUZPWIU1PVVUUY2AIGCWGF668CKWU,margaret,It was interesting.,predicative,You see a parade of animals.,images/birds_parade_small.png,graduated_college,1,6,0.50,3P7RGTLO6E1V0XX6JBFIQ7MRT70AKX,birds,English,images/hummingbird.png,No I didn't have any problems.,That , is small.,bird,You say to your friend:,female,small,small,Mon Aug 05 2019 12:48:16 GMT-0700 (Pacific Daylight Time),1565034496309,This one is also in the parade.,main1,1,yes,A38N2MBXP7IOPS
248,,congruent,58,3IUZPWIU1PVVUUY2AIGCWGF668CKWU,margaret,It was interesting.,predicative,You see a parade of animals.,images/primates_parade_big.png,graduated_college,1,6,0.50,3P7RGTLO6E1V0XX6JBFIQ7MRT70AKX,primates,English,images/gorilla.png,No I didn't have any problems.,That , is big.,gorilla,You say to your friend:,female,big,big,Mon Aug 05 2019 12:48:16 GMT-0700 (Pacific Daylight Time),1565034496309,This one is also in the parade.,main1,2,yes,A38N2MBXP7IOPS
248,,congruent,58,3IUZPWIU1PVVUUY2AIGCWGF668CKWU,margaret,It was interesting.,predicative,You see the following items in a landscape.,images/landscape_small.png,graduated_college,1,6,0.50,3P7RGTLO6E1V0XX6JBFIQ7MRT70AKX,trees,English,images/bonsai.png,No I didn't have any problems.,That , is small.,plant,You say to your friend:,female,small,small,Mon Aug 05 2019 12:48:16 GMT-0700 (Pacific Daylight Time),1565034496309,This one is also in the landscape.,main1,3,yes,A38N2MBXP7IOPS
248,,congruent,58,3IUZPWIU1PVVUUY2AIGCWGF668CKWU,margaret,It was interesting.,predicative,You see a parade of animals.,images/fish_parade_big.png,graduated_college,1,6,0.50,3P7RGTLO6E1V0XX6JBFIQ7MRT70AKX,fish,English,images/swordfish.png,No I didn't have any problems.,That , is big.,fish,You say to your friend:,female,big,big,Mon Aug 05 2019 12:48:16 GMT-0700 (Pacific Daylight Time),1565034496309,This one is also in the parade.,main2,1,yes,A38N2MBXP7IOPS
248,,congruent,58,3IUZPWIU1PVVUUY2AIGCWGF668CKWU,margaret,It was interesting.,predicative,You see a collection of plants.,images/plant_parade_big.png,graduated_college,1,6,0.50,3P7RGTLO6E1V0XX6JBFIQ7MRT70AKX,flowers,English,images/sunflower.png,No I didn't have any problems.,That , is big.,flower,You say to your friend:,female,big,big,Mon Aug 05 2019 12:48:16 GMT-0700 (Pacific Daylight Time),1565034496309,This one is also in the collection.,main2,2,yes,A38N2MBXP7IOPS
248,,congruent,58,3IUZPWIU1PVVUUY2AIGCWGF668CKWU,margaret,It was interesting.,predicative,You see a parade of animals.,images/animal_parade_small.png,graduated_college,1,6,0.50,3P7RGTLO6E1V0XX6JBFIQ7MRT70AKX,dogs,English,images/chihuahua.png,No I didn't have any problems.,That , is small.,dog,You say to your friend:,female,small,small,Mon Aug 05 2019 12:48:16 GMT-0700 (Pacific Daylight Time),1565034496309,This one is also in the parade.,main2,3,yes,A38N2MBXP7IOPS
247,,congruent,19,3SBEHTYCWOR8D43EPGDO4XL9PCFYIO,sarah,,prenominal,You see a parade of animals.,images/fish_parade_small.png,some_college,1,6,.5,3B286OTISE50PDRO1QF6PSMEEI0AJY,fish,English,images/goldfish.png,,That's a small ,,scaly fish,You say to your friend:,male,small,small,Mon Aug 05 2019 15:47:39 GMT-0400 (Eastern Daylight Time),1565034459779,This one is also in the parade.,main1,1,yes,A1PP1FS377QA79
247,,congruent,19,3SBEHTYCWOR8D43EPGDO4XL9PCFYIO,sarah,,prenominal,You see a collection of plants.,images/plant_parade_big.png,some_college,1,6,.5,3B286OTISE50PDRO1QF6PSMEEI0AJY,flowers,English,images/sunflower.png,,That's a big ,,sunflower,You say to your friend:,male,big,big,Mon Aug 05 2019 15:47:39 GMT-0400 (Eastern Daylight Time),1565034459779,This one is also in the collection.,main1,2,yes,A1PP1FS377QA79
247,,congruent,19,3SBEHTYCWOR8D43EPGDO4XL9PCFYIO,sarah,,prenominal,You see a parade of animals.,images/birds_parade_big.png,some_college,1,6,.5,3B286OTISE50PDRO1QF6PSMEEI0AJY,birds,English,images/swan.png,,That's a big ,,duck,You say to your friend:,male,big,big,Mon Aug 05 2019 15:47:39 GMT-0400 (Eastern Daylight Time),1565034459779,This one is also in the parade.,main1,3,yes,A1PP1FS377QA79
247,,congruent,19,3SBEHTYCWOR8D43EPGDO4XL9PCFYIO,sarah,,prenominal,You see the following items in a landscape.,images/landscape_big.png,some_college,1,6,.5,3B286OTISE50PDRO1QF6PSMEEI0AJY,trees,English,images/redwood.png,,That's a big ,,tree,You say to your friend:,male,big,big,Mon Aug 05 2019 15:47:39 GMT-0400 (Eastern Daylight Time),1565034459779,This one is also in the landscape.,main2,1,yes,A1PP1FS377QA79
247,,congruent,19,3SBEHTYCWOR8D43EPGDO4XL9PCFYIO,sarah,,prenominal,You see a parade of animals.,images/primates_parade_small.png,some_college,1,6,.5,3B286OTISE50PDRO1QF6PSMEEI0AJY,primates,English,images/spider-monkey.png,,That's a small ,,monkey,You say to your friend:,male,small,small,Mon Aug 05 2019 15:47:39 GMT-0400 (Eastern Daylight Time),1565034459779,This one is also in the parade.,main2,2,yes,A1PP1FS377QA79
247,,congruent,19,3SBEHTYCWOR8D43EPGDO4XL9PCFYIO,sarah,,prenominal,You see a parade of animals.,images/animal_parade_small.png,some_college,1,6,.5,3B286OTISE50PDRO1QF6PSMEEI0AJY,dogs,English,images/chihuahua.png,,That's a small ,,dog,You say to your friend:,male,small,small,Mon Aug 05 2019 15:47:39 GMT-0400 (Eastern Daylight Time),1565034459779,This one is also in the parade.,main2,3,yes,A1PP1FS377QA79
246,,congruent,30,3FK0YFF9P04WVGS9JCPNCN79FXEVVE,jessica,,predicative,You see the following items in a landscape.,images/landscape_small.png,graduated_college,2,6,.50,3MGHRFQY2LDUJPO5VOJGA9PPI0WY0O,trees,English,images/bonsai.png,,That , is small.,tree,You say to your friend:,female,small,small,Mon Aug 05 2019 14:48:17 GMT-0500 (Central Daylight Time),1565034497323,This one is also in the landscape.,main1,1,yes,A1IMO5XR05U7S5
246,,congruent,30,3FK0YFF9P04WVGS9JCPNCN79FXEVVE,jessica,,predicative,You see a collection of plants.,images/plant_parade_big.png,graduated_college,2,6,.50,3MGHRFQY2LDUJPO5VOJGA9PPI0WY0O,flowers,English,images/sunflower.png,,That , is big.,sunflower,You say to your friend:,female,big,big,Mon Aug 05 2019 14:48:17 GMT-0500 (Central Daylight Time),1565034497323,This one is also in the collection.,main1,2,yes,A1IMO5XR05U7S5
246,,congruent,30,3FK0YFF9P04WVGS9JCPNCN79FXEVVE,jessica,,predicative,You see a parade of animals.,images/birds_parade_small.png,graduated_college,2,6,.50,3MGHRFQY2LDUJPO5VOJGA9PPI0WY0O,birds,English,images/hummingbird.png,,That , is small.,hummingbird,You say to your friend:,female,small,small,Mon Aug 05 2019 14:48:17 GMT-0500 (Central Daylight Time),1565034497323,This one is also in the parade.,main1,3,yes,A1IMO5XR05U7S5
246,,congruent,30,3FK0YFF9P04WVGS9JCPNCN79FXEVVE,jessica,,predicative,You see a parade of animals.,images/animal_parade_big.png,graduated_college,2,6,.50,3MGHRFQY2LDUJPO5VOJGA9PPI0WY0O,dogs,English,images/great-dane.png,,That , is big.,dog,You say to your friend:,female,big,big,Mon Aug 05 2019 14:48:17 GMT-0500 (Central Daylight Time),1565034497323,This one is also in the parade.,main2,1,yes,A1IMO5XR05U7S5
246,,congruent,30,3FK0YFF9P04WVGS9JCPNCN79FXEVVE,jessica,,predicative,You see a parade of animals.,images/fish_parade_small.png,graduated_college,2,6,.50,3MGHRFQY2LDUJPO5VOJGA9PPI0WY0O,fish,English,images/goldfish.png,,That , is small.,fish,You say to your friend:,female,small,small,Mon Aug 05 2019 14:48:17 GMT-0500 (Central Daylight Time),1565034497323,This one is also in the parade.,main2,2,yes,A1IMO5XR05U7S5
246,,congruent,30,3FK0YFF9P04WVGS9JCPNCN79FXEVVE,jessica,,predicative,You see a parade of animals.,images/primates_parade_big.png,graduated_college,2,6,.50,3MGHRFQY2LDUJPO5VOJGA9PPI0WY0O,primates,English,images/gorilla.png,,That , is big.,gorilla,You say to your friend:,female,big,big,Mon Aug 05 2019 14:48:17 GMT-0500 (Central Daylight Time),1565034497323,This one is also in the parade.,main2,3,yes,A1IMO5XR05U7S5
245,,congruent,26,333U7HK6IA31A4STB2BA3DQ8K32JDH,Patricia,,predicative,You see a parade of animals.,images/birds_parade_small.png,some_college,2,6,.50,375VMB7D4J72S9AU3IL83SFKM68DIR,birds,English and Vietnamese,images/hummingbird.png,There were no issues.,That , is small.,hummingbird,You say to your friend:,female,small,small,Mon Aug 05 2019 15:43:41 GMT-0400 (Eastern Daylight Time),1565034221520,This one is also in the parade.,main1,1,confused,A3BJCFSYT1GPJ3
245,,congruent,26,333U7HK6IA31A4STB2BA3DQ8K32JDH,Patricia,,predicative,You see a collection of plants.,images/plant_parade_big.png,some_college,2,6,.50,375VMB7D4J72S9AU3IL83SFKM68DIR,flowers,English and Vietnamese,images/sunflower.png,There were no issues.,That , is big.,sunflower,You say to your friend:,female,big,big,Mon Aug 05 2019 15:43:41 GMT-0400 (Eastern Daylight Time),1565034221520,This one is also in the collection.,main1,2,confused,A3BJCFSYT1GPJ3
245,,congruent,26,333U7HK6IA31A4STB2BA3DQ8K32JDH,Patricia,,predicative,You see a parade of animals.,images/primates_parade_big.png,some_college,2,6,.50,375VMB7D4J72S9AU3IL83SFKM68DIR,primates,English and Vietnamese,images/gorilla.png,There were no issues.,That , is big.,gorilla,You say to your friend:,female,big,big,Mon Aug 05 2019 15:43:41 GMT-0400 (Eastern Daylight Time),1565034221520,This one is also in the parade.,main1,3,confused,A3BJCFSYT1GPJ3
245,,congruent,26,333U7HK6IA31A4STB2BA3DQ8K32JDH,Patricia,,predicative,You see a parade of animals.,images/fish_parade_small.png,some_college,2,6,.50,375VMB7D4J72S9AU3IL83SFKM68DIR,fish,English and Vietnamese,images/goldfish.png,There were no issues.,That , is small.,goldfish,You say to your friend:,female,small,small,Mon Aug 05 2019 15:43:41 GMT-0400 (Eastern Daylight Time),1565034221520,This one is also in the parade.,main2,1,confused,A3BJCFSYT1GPJ3
245,,congruent,26,333U7HK6IA31A4STB2BA3DQ8K32JDH,Patricia,,predicative,You see a parade of animals.,images/animal_parade_small.png,some_college,2,6,.50,375VMB7D4J72S9AU3IL83SFKM68DIR,dogs,English and Vietnamese,images/chihuahua.png,There were no issues.,That , is small.,chihuahua,You say to your friend:,female,small,small,Mon Aug 05 2019 15:43:41 GMT-0400 (Eastern Daylight Time),1565034221520,This one is also in the parade.,main2,2,confused,A3BJCFSYT1GPJ3
245,,congruent,26,333U7HK6IA31A4STB2BA3DQ8K32JDH,Patricia,,predicative,You see the following items in a landscape.,images/landscape_big.png,some_college,2,6,.50,375VMB7D4J72S9AU3IL83SFKM68DIR,trees,English and Vietnamese,images/redwood.png,There were no issues.,That , is big.,tree,You say to your friend:,female,big,big,Mon Aug 05 2019 15:43:41 GMT-0400 (Eastern Daylight Time),1565034221520,This one is also in the landscape.,main2,3,confused,A3BJCFSYT1GPJ3
244,,congruent,,3X31TUMD7YADDZ0HYU3SIQ2RZV2L1T,susan,,predicative,You see a parade of animals.,images/animal_parade_small.png,,,6,,3K1H3NEY7LNOWI4ZDUL5IG247TGDGZ,dogs,,images/chihuahua.png,,That , is small.,animal,You say to your friend:,,small,small,Mon Aug 05 2019 11:42:17 GMT-0800 (GMT-08:00),1565034137525,This one is also in the parade.,main1,1,yes,A3RLDROGYUMEVZ
244,,congruent,,3X31TUMD7YADDZ0HYU3SIQ2RZV2L1T,susan,,predicative,You see a collection of plants.,images/plant_parade_big.png,,,6,,3K1H3NEY7LNOWI4ZDUL5IG247TGDGZ,flowers,,images/sunflower.png,,That , is big.,plant,You say to your friend:,,big,big,Mon Aug 05 2019 11:42:17 GMT-0800 (GMT-08:00),1565034137525,This one is also in the collection.,main1,2,yes,A3RLDROGYUMEVZ
244,,congruent,,3X31TUMD7YADDZ0HYU3SIQ2RZV2L1T,susan,,predicative,You see a parade of animals.,images/primates_parade_big.png,,,6,,3K1H3NEY7LNOWI4ZDUL5IG247TGDGZ,primates,,images/gorilla.png,,That , is big.,animal,You say to your friend:,,big,big,Mon Aug 05 2019 11:42:17 GMT-0800 (GMT-08:00),1565034137525,This one is also in the parade.,main1,3,yes,A3RLDROGYUMEVZ
244,,congruent,,3X31TUMD7YADDZ0HYU3SIQ2RZV2L1T,susan,,predicative,You see the following items in a landscape.,images/landscape_small.png,,,6,,3K1H3NEY7LNOWI4ZDUL5IG247TGDGZ,trees,,images/bonsai.png,,That , is small.,plant,You say to your friend:,,small,small,Mon Aug 05 2019 11:42:17 GMT-0800 (GMT-08:00),1565034137525,This one is also in the landscape.,main2,1,yes,A3RLDROGYUMEVZ
244,,congruent,,3X31TUMD7YADDZ0HYU3SIQ2RZV2L1T,susan,,predicative,You see a parade of animals.,images/fish_parade_small.png,,,6,,3K1H3NEY7LNOWI4ZDUL5IG247TGDGZ,fish,,images/goldfish.png,,That , is small.,animal,You say to your friend:,,small,small,Mon Aug 05 2019 11:42:17 GMT-0800 (GMT-08:00),1565034137525,This one is also in the parade.,main2,2,yes,A3RLDROGYUMEVZ
244,,congruent,,3X31TUMD7YADDZ0HYU3SIQ2RZV2L1T,susan,,predicative,You see a parade of animals.,images/birds_parade_big.png,,,6,,3K1H3NEY7LNOWI4ZDUL5IG247TGDGZ,birds,,images/swan.png,,That , is big.,animal,You say to your friend:,,big,big,Mon Aug 05 2019 11:42:17 GMT-0800 (GMT-08:00),1565034137525,This one is also in the parade.,main2,3,yes,A3RLDROGYUMEVZ
243,,incongruent,67,3ZY8KE4ISKR4Q8WSXDVD6081Y5UQVA,sarah,The timed waits made this work out to $5.06 an hour.,predicative,You see a parade of animals.,images/animal_parade_big.png,some_college,0,6,1.25,3K1H3NEY7LNOWI4ZDUL5IG247TGDGZ,dogs,english,images/great-dane.png,,That , is small.,squirrel,You say to your friend:,male,small,big,Mon Aug 05 2019 12:40:44 GMT-0700 (Pacific Daylight Time),1565034044675,This one is also in the parade.,main1,1,yes,AKVDY8OXNMQED
243,,incongruent,67,3ZY8KE4ISKR4Q8WSXDVD6081Y5UQVA,sarah,The timed waits made this work out to $5.06 an hour.,predicative,You see a parade of animals.,images/fish_parade_small.png,some_college,0,6,1.25,3K1H3NEY7LNOWI4ZDUL5IG247TGDGZ,fish,english,images/goldfish.png,,That , is big.,whale,You say to your friend:,male,big,small,Mon Aug 05 2019 12:40:44 GMT-0700 (Pacific Daylight Time),1565034044675,This one is also in the parade.,main1,2,yes,AKVDY8OXNMQED
243,,incongruent,67,3ZY8KE4ISKR4Q8WSXDVD6081Y5UQVA,sarah,The timed waits made this work out to $5.06 an hour.,predicative,You see a parade of animals.,images/birds_parade_big.png,some_college,0,6,1.25,3K1H3NEY7LNOWI4ZDUL5IG247TGDGZ,birds,english,images/swan.png,,That , is small.,butterfly,You say to your friend:,male,small,big,Mon Aug 05 2019 12:40:44 GMT-0700 (Pacific Daylight Time),1565034044675,This one is also in the parade.,main1,3,yes,AKVDY8OXNMQED
243,,incongruent,67,3ZY8KE4ISKR4Q8WSXDVD6081Y5UQVA,sarah,The timed waits made this work out to $5.06 an hour.,predicative,You see the following items in a landscape.,images/landscape_big.png,some_college,0,6,1.25,3K1H3NEY7LNOWI4ZDUL5IG247TGDGZ,trees,english,images/redwood.png,,That , is small.,house,You say to your friend:,male,small,big,Mon Aug 05 2019 12:40:44 GMT-0700 (Pacific Daylight Time),1565034044675,This one is also in the landscape.,main2,1,yes,AKVDY8OXNMQED
243,,incongruent,67,3ZY8KE4ISKR4Q8WSXDVD6081Y5UQVA,sarah,The timed waits made this work out to $5.06 an hour.,predicative,You see a collection of plants.,images/plant_parade_small.png,some_college,0,6,1.25,3K1H3NEY7LNOWI4ZDUL5IG247TGDGZ,flowers,english,images/daisy.png,,That , is big.,flower,You say to your friend:,male,big,small,Mon Aug 05 2019 12:40:44 GMT-0700 (Pacific Daylight Time),1565034044675,This one is also in the collection.,main2,2,yes,AKVDY8OXNMQED
243,,incongruent,67,3ZY8KE4ISKR4Q8WSXDVD6081Y5UQVA,sarah,The timed waits made this work out to $5.06 an hour.,predicative,You see a parade of animals.,images/primates_parade_small.png,some_college,0,6,1.25,3K1H3NEY7LNOWI4ZDUL5IG247TGDGZ,primates,english,images/spider-monkey.png,,That , is big.,flamingo,You say to your friend:,male,big,small,Mon Aug 05 2019 12:40:44 GMT-0700 (Pacific Daylight Time),1565034044675,This one is also in the parade.,main2,3,yes,AKVDY8OXNMQED
242,,congruent,29,3II4UPYCOKVIWRW66SVJ0E2UYYSDQ0,barbara,,prenominal,You see the following items in a landscape.,images/landscape_small.png,some_college,1,6,0.50,3ZFRE2BDQ922L54LUMA6XUL2Y1LXZ9,trees,English,images/bonsai.png,"No, thank you",That's a small ,,bonsai,You say to your friend:,male,small,small,Mon Aug 05 2019 15:44:34 GMT-0400 (Eastern Daylight Time),1565034274260,This one is also in the landscape.,main1,1,yes,A2BW6WD7LZ9EGV
242,,congruent,29,3II4UPYCOKVIWRW66SVJ0E2UYYSDQ0,barbara,,prenominal,You see a parade of animals.,images/fish_parade_small.png,some_college,1,6,0.50,3ZFRE2BDQ922L54LUMA6XUL2Y1LXZ9,fish,English,images/goldfish.png,"No, thank you",That's a small ,,fish,You say to your friend:,male,small,small,Mon Aug 05 2019 15:44:34 GMT-0400 (Eastern Daylight Time),1565034274260,This one is also in the parade.,main1,2,yes,A2BW6WD7LZ9EGV
242,,congruent,29,3II4UPYCOKVIWRW66SVJ0E2UYYSDQ0,barbara,,prenominal,You see a parade of animals.,images/birds_parade_big.png,some_college,1,6,0.50,3ZFRE2BDQ922L54LUMA6XUL2Y1LXZ9,birds,English,images/swan.png,"No, thank you",That's a big ,,bird,You say to your friend:,male,big,big,Mon Aug 05 2019 15:44:34 GMT-0400 (Eastern Daylight Time),1565034274260,This one is also in the parade.,main1,3,yes,A2BW6WD7LZ9EGV
242,,congruent,29,3II4UPYCOKVIWRW66SVJ0E2UYYSDQ0,barbara,,prenominal,You see a collection of plants.,images/plant_parade_small.png,some_college,1,6,0.50,3ZFRE2BDQ922L54LUMA6XUL2Y1LXZ9,flowers,English,images/daisy.png,"No, thank you",That's a small ,,daisy,You say to your friend:,male,small,small,Mon Aug 05 2019 15:44:34 GMT-0400 (Eastern Daylight Time),1565034274260,This one is also in the collection.,main2,1,yes,A2BW6WD7LZ9EGV
242,,congruent,29,3II4UPYCOKVIWRW66SVJ0E2UYYSDQ0,barbara,,prenominal,You see a parade of animals.,images/primates_parade_big.png,some_college,1,6,0.50,3ZFRE2BDQ922L54LUMA6XUL2Y1LXZ9,primates,English,images/gorilla.png,"No, thank you",That's a big ,,primate,You say to your friend:,male,big,big,Mon Aug 05 2019 15:44:34 GMT-0400 (Eastern Daylight Time),1565034274260,This one is also in the parade.,main2,2,yes,A2BW6WD7LZ9EGV
242,,congruent,29,3II4UPYCOKVIWRW66SVJ0E2UYYSDQ0,barbara,,prenominal,You see a parade of animals.,images/animal_parade_big.png,some_college,1,6,0.50,3ZFRE2BDQ922L54LUMA6XUL2Y1LXZ9,dogs,English,images/great-dane.png,"No, thank you",That's a big ,,dog,You say to your friend:,male,big,big,Mon Aug 05 2019 15:44:34 GMT-0400 (Eastern Daylight Time),1565034274260,This one is also in the parade.,main2,3,yes,A2BW6WD7LZ9EGV
241,,incongruent,27,373ERPL3YPWPPH735XKYA8ULX6GTRY,Jennifer,,prenominal,You see a parade of animals.,images/primates_parade_big.png,some_college,2,6,0.50,3E6L1VR4XWAJX9TPSN79UPS0PST6F1,primates,yes,images/gorilla.png,Little bit,That's a small ,,parade,You say to your friend:,male,small,big,Mon Aug 05 2019 12:38:44 GMT-0700 (Pacific Daylight Time),1565033924170,This one is also in the parade.,main1,1,yes,A29CQ6SI6TN3DJ
241,,incongruent,27,373ERPL3YPWPPH735XKYA8ULX6GTRY,Jennifer,,prenominal,You see a parade of animals.,images/animal_parade_small.png,some_college,2,6,0.50,3E6L1VR4XWAJX9TPSN79UPS0PST6F1,dogs,yes,images/chihuahua.png,Little bit,That's a big ,,yes,You say to your friend:,male,big,small,Mon Aug 05 2019 12:38:44 GMT-0700 (Pacific Daylight Time),1565033924170,This one is also in the parade.,main1,2,yes,A29CQ6SI6TN3DJ
241,,incongruent,27,373ERPL3YPWPPH735XKYA8ULX6GTRY,Jennifer,,prenominal,You see a parade of animals.,images/fish_parade_small.png,some_college,2,6,0.50,3E6L1VR4XWAJX9TPSN79UPS0PST6F1,fish,yes,images/goldfish.png,Little bit,That's a big ,,yes,You say to your friend:,male,big,small,Mon Aug 05 2019 12:38:44 GMT-0700 (Pacific Daylight Time),1565033924170,This one is also in the parade.,main1,3,yes,A29CQ6SI6TN3DJ
241,,incongruent,27,373ERPL3YPWPPH735XKYA8ULX6GTRY,Jennifer,,prenominal,You see a collection of plants.,images/plant_parade_small.png,some_college,2,6,0.50,3E6L1VR4XWAJX9TPSN79UPS0PST6F1,flowers,yes,images/daisy.png,Little bit,That's a big ,,yes,You say to your friend:,male,big,small,Mon Aug 05 2019 12:38:44 GMT-0700 (Pacific Daylight Time),1565033924170,This one is also in the collection.,main2,1,yes,A29CQ6SI6TN3DJ
241,,incongruent,27,373ERPL3YPWPPH735XKYA8ULX6GTRY,Jennifer,,prenominal,You see a parade of animals.,images/birds_parade_big.png,some_college,2,6,0.50,3E6L1VR4XWAJX9TPSN79UPS0PST6F1,birds,yes,images/swan.png,Little bit,That's a small ,,yes,You say to your friend:,male,small,big,Mon Aug 05 2019 12:38:44 GMT-0700 (Pacific Daylight Time),1565033924170,This one is also in the parade.,main2,2,yes,A29CQ6SI6TN3DJ
241,,incongruent,27,373ERPL3YPWPPH735XKYA8ULX6GTRY,Jennifer,,prenominal,You see the following items in a landscape.,images/landscape_big.png,some_college,2,6,0.50,3E6L1VR4XWAJX9TPSN79UPS0PST6F1,trees,yes,images/redwood.png,Little bit,That's a small ,,yes,You say to your friend:,male,small,big,Mon Aug 05 2019 12:38:44 GMT-0700 (Pacific Daylight Time),1565033924170,This one is also in the landscape.,main2,3,yes,A29CQ6SI6TN3DJ
240,,congruent,58,3S96KQ6I9NSVO7OYNWPE5JDHI5RDTE,patricia,,predicative,You see the following items in a landscape.,images/landscape_big.png,some_high_school,1,6,0.50,3WA2XVDZEM5RRVTTXCN3C770DRE6EJ,trees,english,images/redwood.png,no,That , is big.,tree,You say to your friend:,male,big,big,Mon Aug 05 2019 14:40:18 GMT-0500 (Central Daylight Time),1565034018777,This one is also in the landscape.,main1,1,yes,A3O0EYFA3CCZ92
240,,congruent,58,3S96KQ6I9NSVO7OYNWPE5JDHI5RDTE,patricia,,predicative,You see a parade of animals.,images/primates_parade_big.png,some_high_school,1,6,0.50,3WA2XVDZEM5RRVTTXCN3C770DRE6EJ,primates,english,images/gorilla.png,no,That , is big.,gorilla,You say to your friend:,male,big,big,Mon Aug 05 2019 14:40:18 GMT-0500 (Central Daylight Time),1565034018777,This one is also in the parade.,main1,2,yes,A3O0EYFA3CCZ92
240,,congruent,58,3S96KQ6I9NSVO7OYNWPE5JDHI5RDTE,patricia,,predicative,You see a parade of animals.,images/fish_parade_small.png,some_high_school,1,6,0.50,3WA2XVDZEM5RRVTTXCN3C770DRE6EJ,fish,english,images/goldfish.png,no,That , is small.,fish,You say to your friend:,male,small,small,Mon Aug 05 2019 14:40:18 GMT-0500 (Central Daylight Time),1565034018777,This one is also in the parade.,main1,3,yes,A3O0EYFA3CCZ92
240,,congruent,58,3S96KQ6I9NSVO7OYNWPE5JDHI5RDTE,patricia,,predicative,You see a collection of plants.,images/plant_parade_small.png,some_high_school,1,6,0.50,3WA2XVDZEM5RRVTTXCN3C770DRE6EJ,flowers,english,images/daisy.png,no,That , is small.,flower,You say to your friend:,male,small,small,Mon Aug 05 2019 14:40:18 GMT-0500 (Central Daylight Time),1565034018777,This one is also in the collection.,main2,1,yes,A3O0EYFA3CCZ92
240,,congruent,58,3S96KQ6I9NSVO7OYNWPE5JDHI5RDTE,patricia,,predicative,You see a parade of animals.,images/birds_parade_big.png,some_high_school,1,6,0.50,3WA2XVDZEM5RRVTTXCN3C770DRE6EJ,birds,english,images/swan.png,no,That , is big.,swan,You say to your friend:,male,big,big,Mon Aug 05 2019 14:40:18 GMT-0500 (Central Daylight Time),1565034018777,This one is also in the parade.,main2,2,yes,A3O0EYFA3CCZ92
240,,congruent,58,3S96KQ6I9NSVO7OYNWPE5JDHI5RDTE,patricia,,predicative,You see a parade of animals.,images/animal_parade_small.png,some_high_school,1,6,0.50,3WA2XVDZEM5RRVTTXCN3C770DRE6EJ,dogs,english,images/chihuahua.png,no,That , is small.,dog,You say to your friend:,male,small,small,Mon Aug 05 2019 14:40:18 GMT-0500 (Central Daylight Time),1565034018777,This one is also in the parade.,main2,3,yes,A3O0EYFA3CCZ92
239,,congruent,25,3WI0P0II62GI8SB6J7KJ54CZUKSRDD,Mary,,prenominal,You see a parade of animals.,images/primates_parade_small.png,graduated_college,2,6,2,3P7RGTLO6E1V0XX6JBFIQ7MRT70AKX,primates,english,images/spider-monkey.png,no,That's a small ,,animal,You say to your friend:,male,small,small,Mon Aug 05 2019 13:10:56 GMT-0600 (Central Standard Time),1565032256567,This one is also in the parade.,main1,1,yes,A1PB9RGHUXNVP6
239,,congruent,25,3WI0P0II62GI8SB6J7KJ54CZUKSRDD,Mary,,prenominal,You see a parade of animals.,images/fish_parade_big.png,graduated_college,2,6,2,3P7RGTLO6E1V0XX6JBFIQ7MRT70AKX,fish,english,images/swordfish.png,no,That's a big ,,fish,You say to your friend:,male,big,big,Mon Aug 05 2019 13:10:56 GMT-0600 (Central Standard Time),1565032256567,This one is also in the parade.,main1,2,yes,A1PB9RGHUXNVP6
239,,congruent,25,3WI0P0II62GI8SB6J7KJ54CZUKSRDD,Mary,,prenominal,You see a parade of animals.,images/animal_parade_big.png,graduated_college,2,6,2,3P7RGTLO6E1V0XX6JBFIQ7MRT70AKX,dogs,english,images/great-dane.png,no,That's a big ,,dog,You say to your friend:,male,big,big,Mon Aug 05 2019 13:10:56 GMT-0600 (Central Standard Time),1565032256567,This one is also in the parade.,main1,3,yes,A1PB9RGHUXNVP6
239,,congruent,25,3WI0P0II62GI8SB6J7KJ54CZUKSRDD,Mary,,prenominal,You see a collection of plants.,images/plant_parade_small.png,graduated_college,2,6,2,3P7RGTLO6E1V0XX6JBFIQ7MRT70AKX,flowers,english,images/daisy.png,no,That's a small ,,plant,You say to your friend:,male,small,small,Mon Aug 05 2019 13:10:56 GMT-0600 (Central Standard Time),1565032256567,This one is also in the collection.,main2,1,yes,A1PB9RGHUXNVP6
239,,congruent,25,3WI0P0II62GI8SB6J7KJ54CZUKSRDD,Mary,,prenominal,You see the following items in a landscape.,images/landscape_small.png,graduated_college,2,6,2,3P7RGTLO6E1V0XX6JBFIQ7MRT70AKX,trees,english,images/bonsai.png,no,That's a small ,,leaf,You say to your friend:,male,small,small,Mon Aug 05 2019 13:10:56 GMT-0600 (Central Standard Time),1565032256567,This one is also in the landscape.,main2,2,yes,A1PB9RGHUXNVP6
239,,congruent,25,3WI0P0II62GI8SB6J7KJ54CZUKSRDD,Mary,,prenominal,You see a parade of animals.,images/birds_parade_big.png,graduated_college,2,6,2,3P7RGTLO6E1V0XX6JBFIQ7MRT70AKX,birds,english,images/swan.png,no,That's a big ,,goose,You say to your friend:,male,big,big,Mon Aug 05 2019 13:10:56 GMT-0600 (Central Standard Time),1565032256567,This one is also in the parade.,main2,3,yes,A1PB9RGHUXNVP6
238,,congruent,28,35BLDD71I7LD40XJK9EQXTK538FVZ9,jennifer,,prenominal,You see a parade of animals.,images/birds_parade_big.png,some_college,2,6,0.5,3ZFRE2BDQ922L54LUMA6XUL2Y1LXZ9,birds,English,images/swan.png,no,That's a big ,,swan,You say to your friend:,female,big,big,Mon Aug 05 2019 15:39:13 GMT-0400 (Eastern Daylight Time),1565033953723,This one is also in the parade.,main1,1,,A3FYWUZK52IC2J
238,,congruent,28,35BLDD71I7LD40XJK9EQXTK538FVZ9,jennifer,,prenominal,You see a parade of animals.,images/primates_parade_small.png,some_college,2,6,0.5,3ZFRE2BDQ922L54LUMA6XUL2Y1LXZ9,primates,English,images/spider-monkey.png,no,That's a small ,,monkey,You say to your friend:,female,small,small,Mon Aug 05 2019 15:39:13 GMT-0400 (Eastern Daylight Time),1565033953723,This one is also in the parade.,main1,2,,A3FYWUZK52IC2J
238,,congruent,28,35BLDD71I7LD40XJK9EQXTK538FVZ9,jennifer,,prenominal,You see a parade of animals.,images/animal_parade_big.png,some_college,2,6,0.5,3ZFRE2BDQ922L54LUMA6XUL2Y1LXZ9,dogs,English,images/great-dane.png,no,That's a big ,,dog,You say to your friend:,female,big,big,Mon Aug 05 2019 15:39:13 GMT-0400 (Eastern Daylight Time),1565033953723,This one is also in the parade.,main1,3,,A3FYWUZK52IC2J
238,,congruent,28,35BLDD71I7LD40XJK9EQXTK538FVZ9,jennifer,,prenominal,You see a parade of animals.,images/fish_parade_big.png,some_college,2,6,0.5,3ZFRE2BDQ922L54LUMA6XUL2Y1LXZ9,fish,English,images/swordfish.png,no,That's a big ,,swordfish,You say to your friend:,female,big,big,Mon Aug 05 2019 15:39:13 GMT-0400 (Eastern Daylight Time),1565033953723,This one is also in the parade.,main2,1,,A3FYWUZK52IC2J
238,,congruent,28,35BLDD71I7LD40XJK9EQXTK538FVZ9,jennifer,,prenominal,You see a collection of plants.,images/plant_parade_small.png,some_college,2,6,0.5,3ZFRE2BDQ922L54LUMA6XUL2Y1LXZ9,flowers,English,images/daisy.png,no,That's a small ,,plant,You say to your friend:,female,small,small,Mon Aug 05 2019 15:39:13 GMT-0400 (Eastern Daylight Time),1565033953723,This one is also in the collection.,main2,2,,A3FYWUZK52IC2J
238,,congruent,28,35BLDD71I7LD40XJK9EQXTK538FVZ9,jennifer,,prenominal,You see the following items in a landscape.,images/landscape_small.png,some_college,2,6,0.5,3ZFRE2BDQ922L54LUMA6XUL2Y1LXZ9,trees,English,images/bonsai.png,no,That's a small ,,bonzai tree,You say to your friend:,female,small,small,Mon Aug 05 2019 15:39:13 GMT-0400 (Eastern Daylight Time),1565033953723,This one is also in the landscape.,main2,3,,A3FYWUZK52IC2J
237,,incongruent,26,39OWYR0EPLFO3D1OO873108H9KNYFX,elizabeth,,predicative,You see a parade of animals.,images/birds_parade_small.png,some_college,2,6,0.5,3ZFRE2BDQ922L54LUMA6XUL2Y1LXZ9,birds,english,images/hummingbird.png,,That , is big.,bird,You say to your friend:,male,big,small,Mon Aug 05 2019 12:38:38 GMT-0700 (Pacific Daylight Time),1565033918167,This one is also in the parade.,main1,1,confused,A38RNGF4CCP1XI
237,,incongruent,26,39OWYR0EPLFO3D1OO873108H9KNYFX,elizabeth,,predicative,You see the following items in a landscape.,images/landscape_big.png,some_college,2,6,0.5,3ZFRE2BDQ922L54LUMA6XUL2Y1LXZ9,trees,english,images/redwood.png,,That , is small.,tree,You say to your friend:,male,small,big,Mon Aug 05 2019 12:38:38 GMT-0700 (Pacific Daylight Time),1565033918167,This one is also in the landscape.,main1,2,confused,A38RNGF4CCP1XI
237,,incongruent,26,39OWYR0EPLFO3D1OO873108H9KNYFX,elizabeth,,predicative,You see a parade of animals.,images/primates_parade_small.png,some_college,2,6,0.5,3ZFRE2BDQ922L54LUMA6XUL2Y1LXZ9,primates,english,images/spider-monkey.png,,That , is big.,monkey,You say to your friend:,male,big,small,Mon Aug 05 2019 12:38:38 GMT-0700 (Pacific Daylight Time),1565033918167,This one is also in the parade.,main1,3,confused,A38RNGF4CCP1XI
237,,incongruent,26,39OWYR0EPLFO3D1OO873108H9KNYFX,elizabeth,,predicative,You see a parade of animals.,images/fish_parade_big.png,some_college,2,6,0.5,3ZFRE2BDQ922L54LUMA6XUL2Y1LXZ9,fish,english,images/swordfish.png,,That , is small.,marlin,You say to your friend:,male,small,big,Mon Aug 05 2019 12:38:38 GMT-0700 (Pacific Daylight Time),1565033918167,This one is also in the parade.,main2,1,confused,A38RNGF4CCP1XI
237,,incongruent,26,39OWYR0EPLFO3D1OO873108H9KNYFX,elizabeth,,predicative,You see a collection of plants.,images/plant_parade_small.png,some_college,2,6,0.5,3ZFRE2BDQ922L54LUMA6XUL2Y1LXZ9,flowers,english,images/daisy.png,,That , is big.,flower,You say to your friend:,male,big,small,Mon Aug 05 2019 12:38:38 GMT-0700 (Pacific Daylight Time),1565033918167,This one is also in the collection.,main2,2,confused,A38RNGF4CCP1XI
237,,incongruent,26,39OWYR0EPLFO3D1OO873108H9KNYFX,elizabeth,,predicative,You see a parade of animals.,images/animal_parade_big.png,some_college,2,6,0.5,3ZFRE2BDQ922L54LUMA6XUL2Y1LXZ9,dogs,english,images/great-dane.png,,That , is small.,dog,You say to your friend:,male,small,big,Mon Aug 05 2019 12:38:38 GMT-0700 (Pacific Daylight Time),1565033918167,This one is also in the parade.,main2,3,confused,A38RNGF4CCP1XI
236,,incongruent,35,3G2UL9A02E2950CC06EZUHB7CMC763,linda,none,predicative,You see a collection of plants.,images/plant_parade_big.png,graduated_college,1,6,0.50,3K1H3NEY7LNOWI4ZDUL5IG247TGDGZ,flowers,English,images/sunflower.png,no,That , is small.,flower,You say to your friend:,male,small,big,Mon Aug 05 2019 14:36:59 GMT-0500 (Central Daylight Time),1565033819660,This one is also in the collection.,main1,1,yes,A14WLAP6TCEKO0
236,,incongruent,35,3G2UL9A02E2950CC06EZUHB7CMC763,linda,none,predicative,You see a parade of animals.,images/animal_parade_big.png,graduated_college,1,6,0.50,3K1H3NEY7LNOWI4ZDUL5IG247TGDGZ,dogs,English,images/great-dane.png,no,That , is small.,dog,You say to your friend:,male,small,big,Mon Aug 05 2019 14:36:59 GMT-0500 (Central Daylight Time),1565033819660,This one is also in the parade.,main1,2,yes,A14WLAP6TCEKO0
236,,incongruent,35,3G2UL9A02E2950CC06EZUHB7CMC763,linda,none,predicative,You see a parade of animals.,images/primates_parade_small.png,graduated_college,1,6,0.50,3K1H3NEY7LNOWI4ZDUL5IG247TGDGZ,primates,English,images/spider-monkey.png,no,That , is big.,monkey,You say to your friend:,male,big,small,Mon Aug 05 2019 14:36:59 GMT-0500 (Central Daylight Time),1565033819660,This one is also in the parade.,main1,3,yes,A14WLAP6TCEKO0
236,,incongruent,35,3G2UL9A02E2950CC06EZUHB7CMC763,linda,none,predicative,You see a parade of animals.,images/birds_parade_small.png,graduated_college,1,6,0.50,3K1H3NEY7LNOWI4ZDUL5IG247TGDGZ,birds,English,images/hummingbird.png,no,That , is big.,hummingbird,You say to your friend:,male,big,small,Mon Aug 05 2019 14:36:59 GMT-0500 (Central Daylight Time),1565033819660,This one is also in the parade.,main2,1,yes,A14WLAP6TCEKO0
236,,incongruent,35,3G2UL9A02E2950CC06EZUHB7CMC763,linda,none,predicative,You see the following items in a landscape.,images/landscape_big.png,graduated_college,1,6,0.50,3K1H3NEY7LNOWI4ZDUL5IG247TGDGZ,trees,English,images/redwood.png,no,That , is small.,tree,You say to your friend:,male,small,big,Mon Aug 05 2019 14:36:59 GMT-0500 (Central Daylight Time),1565033819660,This one is also in the landscape.,main2,2,yes,A14WLAP6TCEKO0
236,,incongruent,35,3G2UL9A02E2950CC06EZUHB7CMC763,linda,none,predicative,You see a parade of animals.,images/fish_parade_small.png,graduated_college,1,6,0.50,3K1H3NEY7LNOWI4ZDUL5IG247TGDGZ,fish,English,images/goldfish.png,no,That , is big.,fish,You say to your friend:,male,big,small,Mon Aug 05 2019 14:36:59 GMT-0500 (Central Daylight Time),1565033819660,This one is also in the parade.,main2,3,yes,A14WLAP6TCEKO0
235,,congruent,27,3MHW492WW11D5TY05KOWPROWO41MVN,susan,Nice and quick HIT!,prenominal,You see the following items in a landscape.,images/landscape_big.png,graduated_high_school,2,6,0.60,335HHSX8CDT2WEZAX03N3GE5MTTDHY,trees,English,images/redwood.png,No,That's a big ,,tree,You say to your friend:,male,big,big,Mon Aug 05 2019 15:36:55 GMT-0400 (Eastern Daylight Time),1565033815545,This one is also in the landscape.,main1,1,yes,A7KKB6J717F1V
235,,congruent,27,3MHW492WW11D5TY05KOWPROWO41MVN,susan,Nice and quick HIT!,prenominal,You see a parade of animals.,images/animal_parade_small.png,graduated_high_school,2,6,0.60,335HHSX8CDT2WEZAX03N3GE5MTTDHY,dogs,English,images/chihuahua.png,No,That's a small ,,dog,You say to your friend:,male,small,small,Mon Aug 05 2019 15:36:55 GMT-0400 (Eastern Daylight Time),1565033815545,This one is also in the parade.,main1,2,yes,A7KKB6J717F1V
235,,congruent,27,3MHW492WW11D5TY05KOWPROWO41MVN,susan,Nice and quick HIT!,prenominal,You see a collection of plants.,images/plant_parade_small.png,graduated_high_school,2,6,0.60,335HHSX8CDT2WEZAX03N3GE5MTTDHY,flowers,English,images/daisy.png,No,That's a small ,,twig,You say to your friend:,male,small,small,Mon Aug 05 2019 15:36:55 GMT-0400 (Eastern Daylight Time),1565033815545,This one is also in the collection.,main1,3,yes,A7KKB6J717F1V
235,,congruent,27,3MHW492WW11D5TY05KOWPROWO41MVN,susan,Nice and quick HIT!,prenominal,You see a parade of animals.,images/fish_parade_small.png,graduated_high_school,2,6,0.60,335HHSX8CDT2WEZAX03N3GE5MTTDHY,fish,English,images/goldfish.png,No,That's a small ,,fish,You say to your friend:,male,small,small,Mon Aug 05 2019 15:36:55 GMT-0400 (Eastern Daylight Time),1565033815545,This one is also in the parade.,main2,1,yes,A7KKB6J717F1V
235,,congruent,27,3MHW492WW11D5TY05KOWPROWO41MVN,susan,Nice and quick HIT!,prenominal,You see a parade of animals.,images/primates_parade_big.png,graduated_high_school,2,6,0.60,335HHSX8CDT2WEZAX03N3GE5MTTDHY,primates,English,images/gorilla.png,No,That's a big ,,ape,You say to your friend:,male,big,big,Mon Aug 05 2019 15:36:55 GMT-0400 (Eastern Daylight Time),1565033815545,This one is also in the parade.,main2,2,yes,A7KKB6J717F1V
235,,congruent,27,3MHW492WW11D5TY05KOWPROWO41MVN,susan,Nice and quick HIT!,prenominal,You see a parade of animals.,images/birds_parade_big.png,graduated_high_school,2,6,0.60,335HHSX8CDT2WEZAX03N3GE5MTTDHY,birds,English,images/swan.png,No,That's a big ,,bird,You say to your friend:,male,big,big,Mon Aug 05 2019 15:36:55 GMT-0400 (Eastern Daylight Time),1565033815545,This one is also in the parade.,main2,3,yes,A7KKB6J717F1V
234,,congruent,25,31N2WW6R9SENNA40ZNEDB6C40JT3FX,jessica,,prenominal,You see a parade of animals.,images/animal_parade_small.png,graduated_college,1,6,.7,3P7RGTLO6E1V0XX6JBFIQ7MRT70AKX,dogs,Cantonese,images/chihuahua.png,no problems,That's a small ,,dog,You say to your friend:,male,small,small,Mon Aug 05 2019 15:33:45 GMT-0400 (Eastern Daylight Time),1565033625243,This one is also in the parade.,main1,1,yes,A2JTSH1VPJQ8FR
234,,congruent,25,31N2WW6R9SENNA40ZNEDB6C40JT3FX,jessica,,prenominal,You see a parade of animals.,images/primates_parade_small.png,graduated_college,1,6,.7,3P7RGTLO6E1V0XX6JBFIQ7MRT70AKX,primates,Cantonese,images/spider-monkey.png,no problems,That's a small ,,monkey,You say to your friend:,male,small,small,Mon Aug 05 2019 15:33:45 GMT-0400 (Eastern Daylight Time),1565033625243,This one is also in the parade.,main1,2,yes,A2JTSH1VPJQ8FR
234,,congruent,25,31N2WW6R9SENNA40ZNEDB6C40JT3FX,jessica,,prenominal,You see a parade of animals.,images/birds_parade_big.png,graduated_college,1,6,.7,3P7RGTLO6E1V0XX6JBFIQ7MRT70AKX,birds,Cantonese,images/swan.png,no problems,That's a big ,,swan,You say to your friend:,male,big,big,Mon Aug 05 2019 15:33:45 GMT-0400 (Eastern Daylight Time),1565033625243,This one is also in the parade.,main1,3,yes,A2JTSH1VPJQ8FR
234,,congruent,25,31N2WW6R9SENNA40ZNEDB6C40JT3FX,jessica,,prenominal,You see a parade of animals.,images/fish_parade_big.png,graduated_college,1,6,.7,3P7RGTLO6E1V0XX6JBFIQ7MRT70AKX,fish,Cantonese,images/swordfish.png,no problems,That's a big ,,swordfish,You say to your friend:,male,big,big,Mon Aug 05 2019 15:33:45 GMT-0400 (Eastern Daylight Time),1565033625243,This one is also in the parade.,main2,1,yes,A2JTSH1VPJQ8FR
234,,congruent,25,31N2WW6R9SENNA40ZNEDB6C40JT3FX,jessica,,prenominal,You see a collection of plants.,images/plant_parade_big.png,graduated_college,1,6,.7,3P7RGTLO6E1V0XX6JBFIQ7MRT70AKX,flowers,Cantonese,images/sunflower.png,no problems,That's a big ,,sunflower,You say to your friend:,male,big,big,Mon Aug 05 2019 15:33:45 GMT-0400 (Eastern Daylight Time),1565033625243,This one is also in the collection.,main2,2,yes,A2JTSH1VPJQ8FR
234,,congruent,25,31N2WW6R9SENNA40ZNEDB6C40JT3FX,jessica,,prenominal,You see the following items in a landscape.,images/landscape_small.png,graduated_college,1,6,.7,3P7RGTLO6E1V0XX6JBFIQ7MRT70AKX,trees,Cantonese,images/bonsai.png,no problems,That's a small ,,sapling,You say to your friend:,male,small,small,Mon Aug 05 2019 15:33:45 GMT-0400 (Eastern Daylight Time),1565033625243,This one is also in the landscape.,main2,3,yes,A2JTSH1VPJQ8FR
233,,congruent,24,308XBLVESJSPTVDM5BTDAEOZRZJBRT,susan,,predicative,You see a parade of animals.,images/birds_parade_big.png,graduated_high_school,1,6,.50,335HHSX8CDT2WEZAX03N3GE5MTTDHY,birds,,images/swan.png,no,That , is big.,swan,You say to your friend:,male,big,big,Mon Aug 05 2019 12:33:49 GMT-0700 (Pacific Daylight Time),1565033629352,This one is also in the parade.,main1,1,yes,A3SMQNSK314EFB
233,,congruent,24,308XBLVESJSPTVDM5BTDAEOZRZJBRT,susan,,predicative,You see the following items in a landscape.,images/landscape_small.png,graduated_high_school,1,6,.50,335HHSX8CDT2WEZAX03N3GE5MTTDHY,trees,,images/bonsai.png,no,That , is small.,tree,You say to your friend:,male,small,small,Mon Aug 05 2019 12:33:49 GMT-0700 (Pacific Daylight Time),1565033629352,This one is also in the landscape.,main1,2,yes,A3SMQNSK314EFB
233,,congruent,24,308XBLVESJSPTVDM5BTDAEOZRZJBRT,susan,,predicative,You see a parade of animals.,images/fish_parade_big.png,graduated_high_school,1,6,.50,335HHSX8CDT2WEZAX03N3GE5MTTDHY,fish,,images/swordfish.png,no,That , is big.,swordfish,You say to your friend:,male,big,big,Mon Aug 05 2019 12:33:49 GMT-0700 (Pacific Daylight Time),1565033629352,This one is also in the parade.,main1,3,yes,A3SMQNSK314EFB
233,,congruent,24,308XBLVESJSPTVDM5BTDAEOZRZJBRT,susan,,predicative,You see a parade of animals.,images/primates_parade_small.png,graduated_high_school,1,6,.50,335HHSX8CDT2WEZAX03N3GE5MTTDHY,primates,,images/spider-monkey.png,no,That , is small.,monkey,You say to your friend:,male,small,small,Mon Aug 05 2019 12:33:49 GMT-0700 (Pacific Daylight Time),1565033629352,This one is also in the parade.,main2,1,yes,A3SMQNSK314EFB
233,,congruent,24,308XBLVESJSPTVDM5BTDAEOZRZJBRT,susan,,predicative,You see a collection of plants.,images/plant_parade_big.png,graduated_high_school,1,6,.50,335HHSX8CDT2WEZAX03N3GE5MTTDHY,flowers,,images/sunflower.png,no,That , is big.,flower,You say to your friend:,male,big,big,Mon Aug 05 2019 12:33:49 GMT-0700 (Pacific Daylight Time),1565033629352,This one is also in the collection.,main2,2,yes,A3SMQNSK314EFB
233,,congruent,24,308XBLVESJSPTVDM5BTDAEOZRZJBRT,susan,,predicative,You see a parade of animals.,images/animal_parade_small.png,graduated_high_school,1,6,.50,335HHSX8CDT2WEZAX03N3GE5MTTDHY,dogs,,images/chihuahua.png,no,That , is small.,dog,You say to your friend:,male,small,small,Mon Aug 05 2019 12:33:49 GMT-0700 (Pacific Daylight Time),1565033629352,This one is also in the parade.,main2,3,yes,A3SMQNSK314EFB
232,,incongruent,34,3U8YCDAGXQ4OX7VCUG7OL7IB49I0QT,jessica,,predicative,You see a parade of animals.,images/animal_parade_small.png,higher_degree,2,6,.50,3WA2XVDZEM5RRVTTXCN3C770DRE6EJ,dogs,English,images/chihuahua.png,,That , is big.,snake,You say to your friend:,male,big,small,Mon Aug 05 2019 14:34:14 GMT-0500 (Central Daylight Time),1565033654286,This one is also in the parade.,main1,1,yes,A2MKXI4KCRRI7Y
232,,incongruent,34,3U8YCDAGXQ4OX7VCUG7OL7IB49I0QT,jessica,,predicative,You see a collection of plants.,images/plant_parade_big.png,higher_degree,2,6,.50,3WA2XVDZEM5RRVTTXCN3C770DRE6EJ,flowers,English,images/sunflower.png,,That , is small.,rose,You say to your friend:,male,small,big,Mon Aug 05 2019 14:34:14 GMT-0500 (Central Daylight Time),1565033654286,This one is also in the collection.,main1,2,yes,A2MKXI4KCRRI7Y
232,,incongruent,34,3U8YCDAGXQ4OX7VCUG7OL7IB49I0QT,jessica,,predicative,You see a parade of animals.,images/fish_parade_big.png,higher_degree,2,6,.50,3WA2XVDZEM5RRVTTXCN3C770DRE6EJ,fish,English,images/swordfish.png,,That , is small.,crab,You say to your friend:,male,small,big,Mon Aug 05 2019 14:34:14 GMT-0500 (Central Daylight Time),1565033654286,This one is also in the parade.,main1,3,yes,A2MKXI4KCRRI7Y
232,,incongruent,34,3U8YCDAGXQ4OX7VCUG7OL7IB49I0QT,jessica,,predicative,You see a parade of animals.,images/birds_parade_big.png,higher_degree,2,6,.50,3WA2XVDZEM5RRVTTXCN3C770DRE6EJ,birds,English,images/swan.png,,That , is small.,pug,You say to your friend:,male,small,big,Mon Aug 05 2019 14:34:14 GMT-0500 (Central Daylight Time),1565033654286,This one is also in the parade.,main2,1,yes,A2MKXI4KCRRI7Y
232,,incongruent,34,3U8YCDAGXQ4OX7VCUG7OL7IB49I0QT,jessica,,predicative,You see the following items in a landscape.,images/landscape_small.png,higher_degree,2,6,.50,3WA2XVDZEM5RRVTTXCN3C770DRE6EJ,trees,English,images/bonsai.png,,That , is big.,sunflower,You say to your friend:,male,big,small,Mon Aug 05 2019 14:34:14 GMT-0500 (Central Daylight Time),1565033654286,This one is also in the landscape.,main2,2,yes,A2MKXI4KCRRI7Y
232,,incongruent,34,3U8YCDAGXQ4OX7VCUG7OL7IB49I0QT,jessica,,predicative,You see a parade of animals.,images/primates_parade_small.png,higher_degree,2,6,.50,3WA2XVDZEM5RRVTTXCN3C770DRE6EJ,primates,English,images/spider-monkey.png,,That , is big.,tiger,You say to your friend:,male,big,small,Mon Aug 05 2019 14:34:14 GMT-0500 (Central Daylight Time),1565033654286,This one is also in the parade.,main2,3,yes,A2MKXI4KCRRI7Y
231,,congruent,33,3F6HPJW4JEO0DEUCLCA8WKTCP8IW2C,Barbara,,predicative,You see the following items in a landscape.,images/landscape_small.png,some_college,2,6,.50,3P7RGTLO6E1V0XX6JBFIQ7MRT70AKX,trees,English,images/bonsai.png,No,That , is small.,Bush,You say to your friend:,female,small,small,Mon Aug 05 2019 14:33:36 GMT-0500 (Central Daylight Time),1565033616622,This one is also in the landscape.,main1,1,yes,A359K1UO9OLEW5
231,,congruent,33,3F6HPJW4JEO0DEUCLCA8WKTCP8IW2C,Barbara,,predicative,You see a parade of animals.,images/birds_parade_big.png,some_college,2,6,.50,3P7RGTLO6E1V0XX6JBFIQ7MRT70AKX,birds,English,images/swan.png,No,That , is big.,swan,You say to your friend:,female,big,big,Mon Aug 05 2019 14:33:36 GMT-0500 (Central Daylight Time),1565033616622,This one is also in the parade.,main1,2,yes,A359K1UO9OLEW5
231,,congruent,33,3F6HPJW4JEO0DEUCLCA8WKTCP8IW2C,Barbara,,predicative,You see a parade of animals.,images/primates_parade_big.png,some_college,2,6,.50,3P7RGTLO6E1V0XX6JBFIQ7MRT70AKX,primates,English,images/gorilla.png,No,That , is big.,gorilla,You say to your friend:,female,big,big,Mon Aug 05 2019 14:33:36 GMT-0500 (Central Daylight Time),1565033616622,This one is also in the parade.,main1,3,yes,A359K1UO9OLEW5
231,,congruent,33,3F6HPJW4JEO0DEUCLCA8WKTCP8IW2C,Barbara,,predicative,You see a parade of animals.,images/animal_parade_small.png,some_college,2,6,.50,3P7RGTLO6E1V0XX6JBFIQ7MRT70AKX,dogs,English,images/chihuahua.png,No,That , is small.,dog,You say to your friend:,female,small,small,Mon Aug 05 2019 14:33:36 GMT-0500 (Central Daylight Time),1565033616622,This one is also in the parade.,main2,1,yes,A359K1UO9OLEW5
231,,congruent,33,3F6HPJW4JEO0DEUCLCA8WKTCP8IW2C,Barbara,,predicative,You see a collection of plants.,images/plant_parade_small.png,some_college,2,6,.50,3P7RGTLO6E1V0XX6JBFIQ7MRT70AKX,flowers,English,images/daisy.png,No,That , is small.,flower,You say to your friend:,female,small,small,Mon Aug 05 2019 14:33:36 GMT-0500 (Central Daylight Time),1565033616622,This one is also in the collection.,main2,2,yes,A359K1UO9OLEW5
231,,congruent,33,3F6HPJW4JEO0DEUCLCA8WKTCP8IW2C,Barbara,,predicative,You see a parade of animals.,images/fish_parade_big.png,some_college,2,6,.50,3P7RGTLO6E1V0XX6JBFIQ7MRT70AKX,fish,English,images/swordfish.png,No,That , is big.,swordfish,You say to your friend:,female,big,big,Mon Aug 05 2019 14:33:36 GMT-0500 (Central Daylight Time),1565033616622,This one is also in the parade.,main2,3,yes,A359K1UO9OLEW5
230,,incongruent,31,3UOUJI6MTE2OMQ84E1G04M2BH1BXUS,elizabeth,,predicative,You see a parade of animals.,images/animal_parade_small.png,graduated_college,2,6,0.5,3MGHRFQY2LDUJPO5VOJGA9PPI0WY0O,dogs,english,images/chihuahua.png,no,That , is big.,horse,You say to your friend:,male,big,small,Mon Aug 05 2019 12:32:09 GMT-0700 (Pacific Daylight Time),1565033529390,This one is also in the parade.,main1,1,confused,A1YX4D517MM5M3
230,,incongruent,31,3UOUJI6MTE2OMQ84E1G04M2BH1BXUS,elizabeth,,predicative,You see a collection of plants.,images/plant_parade_big.png,graduated_college,2,6,0.5,3MGHRFQY2LDUJPO5VOJGA9PPI0WY0O,flowers,english,images/sunflower.png,no,That , is small.,rose,You say to your friend:,male,small,big,Mon Aug 05 2019 12:32:09 GMT-0700 (Pacific Daylight Time),1565033529390,This one is also in the collection.,main1,2,confused,A1YX4D517MM5M3
230,,incongruent,31,3UOUJI6MTE2OMQ84E1G04M2BH1BXUS,elizabeth,,predicative,You see the following items in a landscape.,images/landscape_small.png,graduated_college,2,6,0.5,3MGHRFQY2LDUJPO5VOJGA9PPI0WY0O,trees,english,images/bonsai.png,no,That , is big.,sunflower,You say to your friend:,male,big,small,Mon Aug 05 2019 12:32:09 GMT-0700 (Pacific Daylight Time),1565033529390,This one is also in the landscape.,main1,3,confused,A1YX4D517MM5M3
230,,incongruent,31,3UOUJI6MTE2OMQ84E1G04M2BH1BXUS,elizabeth,,predicative,You see a parade of animals.,images/birds_parade_small.png,graduated_college,2,6,0.5,3MGHRFQY2LDUJPO5VOJGA9PPI0WY0O,birds,english,images/hummingbird.png,no,That , is big.,hummingbird,You say to your friend:,male,big,small,Mon Aug 05 2019 12:32:09 GMT-0700 (Pacific Daylight Time),1565033529390,This one is also in the parade.,main2,1,confused,A1YX4D517MM5M3
230,,incongruent,31,3UOUJI6MTE2OMQ84E1G04M2BH1BXUS,elizabeth,,predicative,You see a parade of animals.,images/fish_parade_big.png,graduated_college,2,6,0.5,3MGHRFQY2LDUJPO5VOJGA9PPI0WY0O,fish,english,images/swordfish.png,no,That , is small.,shark,You say to your friend:,male,small,big,Mon Aug 05 2019 12:32:09 GMT-0700 (Pacific Daylight Time),1565033529390,This one is also in the parade.,main2,2,confused,A1YX4D517MM5M3
230,,incongruent,31,3UOUJI6MTE2OMQ84E1G04M2BH1BXUS,elizabeth,,predicative,You see a parade of animals.,images/primates_parade_big.png,graduated_college,2,6,0.5,3MGHRFQY2LDUJPO5VOJGA9PPI0WY0O,primates,english,images/gorilla.png,no,That , is small.,gorilla,You say to your friend:,male,small,big,Mon Aug 05 2019 12:32:09 GMT-0700 (Pacific Daylight Time),1565033529390,This one is also in the parade.,main2,3,confused,A1YX4D517MM5M3
229,,congruent,32,3T111IHZ5FE652YP7RFHJ8T93ZDR9W,linda,,predicative,You see a parade of animals.,images/primates_parade_big.png,some_college,1,6,1.00,3B286OTISE50PDRO1QF6PSMEEI0AJY,primates,english,images/gorilla.png,no,That , is big.,gorilla,You say to your friend:,male,big,big,Mon Aug 05 2019 15:32:21 GMT-0400 (Eastern Daylight Time),1565033541435,This one is also in the parade.,main1,1,yes,A333BKDMGVX18L
229,,congruent,32,3T111IHZ5FE652YP7RFHJ8T93ZDR9W,linda,,predicative,You see a collection of plants.,images/plant_parade_small.png,some_college,1,6,1.00,3B286OTISE50PDRO1QF6PSMEEI0AJY,flowers,english,images/daisy.png,no,That , is small.,plant,You say to your friend:,male,small,small,Mon Aug 05 2019 15:32:21 GMT-0400 (Eastern Daylight Time),1565033541435,This one is also in the collection.,main1,2,yes,A333BKDMGVX18L
229,,congruent,32,3T111IHZ5FE652YP7RFHJ8T93ZDR9W,linda,,predicative,You see a parade of animals.,images/animal_parade_big.png,some_college,1,6,1.00,3B286OTISE50PDRO1QF6PSMEEI0AJY,dogs,english,images/great-dane.png,no,That , is big.,horse,You say to your friend:,male,big,big,Mon Aug 05 2019 15:32:21 GMT-0400 (Eastern Daylight Time),1565033541435,This one is also in the parade.,main1,3,yes,A333BKDMGVX18L
229,,congruent,32,3T111IHZ5FE652YP7RFHJ8T93ZDR9W,linda,,predicative,You see a parade of animals.,images/birds_parade_big.png,some_college,1,6,1.00,3B286OTISE50PDRO1QF6PSMEEI0AJY,birds,english,images/swan.png,no,That , is big.,gorilla,You say to your friend:,male,big,big,Mon Aug 05 2019 15:32:21 GMT-0400 (Eastern Daylight Time),1565033541435,This one is also in the parade.,main2,1,yes,A333BKDMGVX18L
229,,congruent,32,3T111IHZ5FE652YP7RFHJ8T93ZDR9W,linda,,predicative,You see a parade of animals.,images/fish_parade_small.png,some_college,1,6,1.00,3B286OTISE50PDRO1QF6PSMEEI0AJY,fish,english,images/goldfish.png,no,That , is small.,fish,You say to your friend:,male,small,small,Mon Aug 05 2019 15:32:21 GMT-0400 (Eastern Daylight Time),1565033541435,This one is also in the parade.,main2,2,yes,A333BKDMGVX18L
229,,congruent,32,3T111IHZ5FE652YP7RFHJ8T93ZDR9W,linda,,predicative,You see the following items in a landscape.,images/landscape_small.png,some_college,1,6,1.00,3B286OTISE50PDRO1QF6PSMEEI0AJY,trees,english,images/bonsai.png,no,That , is small.,tree,You say to your friend:,male,small,small,Mon Aug 05 2019 15:32:21 GMT-0400 (Eastern Daylight Time),1565033541435,This one is also in the landscape.,main2,3,yes,A333BKDMGVX18L
228,,incongruent,57,35GCEFQ6I6CTSRV00Z8KEYSMCOO3ZM,Margaret,none,prenominal,You see a collection of plants.,images/plant_parade_big.png,graduated_college,1,6,.50,3P7RGTLO6E1V0XX6JBFIQ7MRT70AKX,flowers,English,images/sunflower.png,no,That's a small ,,flower,You say to your friend:,female,small,big,Mon Aug 05 2019 15:31:53 GMT-0400 (Eastern Daylight Time),1565033513711,This one is also in the collection.,main1,1,yes,A3U2UNSYDPS933
228,,incongruent,57,35GCEFQ6I6CTSRV00Z8KEYSMCOO3ZM,Margaret,none,prenominal,You see a parade of animals.,images/fish_parade_big.png,graduated_college,1,6,.50,3P7RGTLO6E1V0XX6JBFIQ7MRT70AKX,fish,English,images/swordfish.png,no,That's a small ,,sailfish,You say to your friend:,female,small,big,Mon Aug 05 2019 15:31:53 GMT-0400 (Eastern Daylight Time),1565033513711,This one is also in the parade.,main1,2,yes,A3U2UNSYDPS933
228,,incongruent,57,35GCEFQ6I6CTSRV00Z8KEYSMCOO3ZM,Margaret,none,prenominal,You see the following items in a landscape.,images/landscape_small.png,graduated_college,1,6,.50,3P7RGTLO6E1V0XX6JBFIQ7MRT70AKX,trees,English,images/bonsai.png,no,That's a big ,,bush,You say to your friend:,female,big,small,Mon Aug 05 2019 15:31:53 GMT-0400 (Eastern Daylight Time),1565033513711,This one is also in the landscape.,main1,3,yes,A3U2UNSYDPS933
228,,incongruent,57,35GCEFQ6I6CTSRV00Z8KEYSMCOO3ZM,Margaret,none,prenominal,You see a parade of animals.,images/primates_parade_big.png,graduated_college,1,6,.50,3P7RGTLO6E1V0XX6JBFIQ7MRT70AKX,primates,English,images/gorilla.png,no,That's a small ,,gorilla,You say to your friend:,female,small,big,Mon Aug 05 2019 15:31:53 GMT-0400 (Eastern Daylight Time),1565033513711,This one is also in the parade.,main2,1,yes,A3U2UNSYDPS933
228,,incongruent,57,35GCEFQ6I6CTSRV00Z8KEYSMCOO3ZM,Margaret,none,prenominal,You see a parade of animals.,images/animal_parade_small.png,graduated_college,1,6,.50,3P7RGTLO6E1V0XX6JBFIQ7MRT70AKX,dogs,English,images/chihuahua.png,no,That's a big ,,dog,You say to your friend:,female,big,small,Mon Aug 05 2019 15:31:53 GMT-0400 (Eastern Daylight Time),1565033513711,This one is also in the parade.,main2,2,yes,A3U2UNSYDPS933
228,,incongruent,57,35GCEFQ6I6CTSRV00Z8KEYSMCOO3ZM,Margaret,none,prenominal,You see a parade of animals.,images/birds_parade_small.png,graduated_college,1,6,.50,3P7RGTLO6E1V0XX6JBFIQ7MRT70AKX,birds,English,images/hummingbird.png,no,That's a big ,,bird,You say to your friend:,female,big,small,Mon Aug 05 2019 15:31:53 GMT-0400 (Eastern Daylight Time),1565033513711,This one is also in the parade.,main2,3,yes,A3U2UNSYDPS933
227,,incongruent,25,3TPZPLC3M10ZENTUDQAIN0Q82PH3P1,sarah,,prenominal,You see a parade of animals.,images/animal_parade_small.png,some_college,2,6,1.00,3ZFRE2BDQ922L54LUMA6XUL2Y1LXZ9,dogs,English,images/chihuahua.png,no,That's a big ,,dog,You say to your friend:,male,big,small,Mon Aug 05 2019 12:26:55 GMT-0700 (Pacific Daylight Time),1565033215081,This one is also in the parade.,main1,1,yes,A3MHKFOJIXO7QN
227,,incongruent,25,3TPZPLC3M10ZENTUDQAIN0Q82PH3P1,sarah,,prenominal,You see a parade of animals.,images/fish_parade_big.png,some_college,2,6,1.00,3ZFRE2BDQ922L54LUMA6XUL2Y1LXZ9,fish,English,images/swordfish.png,no,That's a small ,,swordfish,You say to your friend:,male,small,big,Mon Aug 05 2019 12:26:55 GMT-0700 (Pacific Daylight Time),1565033215081,This one is also in the parade.,main1,2,yes,A3MHKFOJIXO7QN
227,,incongruent,25,3TPZPLC3M10ZENTUDQAIN0Q82PH3P1,sarah,,prenominal,You see a parade of animals.,images/primates_parade_small.png,some_college,2,6,1.00,3ZFRE2BDQ922L54LUMA6XUL2Y1LXZ9,primates,English,images/spider-monkey.png,no,That's a big ,,monkey,You say to your friend:,male,big,small,Mon Aug 05 2019 12:26:55 GMT-0700 (Pacific Daylight Time),1565033215081,This one is also in the parade.,main1,3,yes,A3MHKFOJIXO7QN
227,,incongruent,25,3TPZPLC3M10ZENTUDQAIN0Q82PH3P1,sarah,,prenominal,You see a collection of plants.,images/plant_parade_big.png,some_college,2,6,1.00,3ZFRE2BDQ922L54LUMA6XUL2Y1LXZ9,flowers,English,images/sunflower.png,no,That's a small ,,sunflower,You say to your friend:,male,small,big,Mon Aug 05 2019 12:26:55 GMT-0700 (Pacific Daylight Time),1565033215081,This one is also in the collection.,main2,1,yes,A3MHKFOJIXO7QN
227,,incongruent,25,3TPZPLC3M10ZENTUDQAIN0Q82PH3P1,sarah,,prenominal,You see the following items in a landscape.,images/landscape_small.png,some_college,2,6,1.00,3ZFRE2BDQ922L54LUMA6XUL2Y1LXZ9,trees,English,images/bonsai.png,no,That's a big ,,plant,You say to your friend:,male,big,small,Mon Aug 05 2019 12:26:55 GMT-0700 (Pacific Daylight Time),1565033215081,This one is also in the landscape.,main2,2,yes,A3MHKFOJIXO7QN
227,,incongruent,25,3TPZPLC3M10ZENTUDQAIN0Q82PH3P1,sarah,,prenominal,You see a parade of animals.,images/birds_parade_big.png,some_college,2,6,1.00,3ZFRE2BDQ922L54LUMA6XUL2Y1LXZ9,birds,English,images/swan.png,no,That's a small ,,swan,You say to your friend:,male,small,big,Mon Aug 05 2019 12:26:55 GMT-0700 (Pacific Daylight Time),1565033215081,This one is also in the parade.,main2,3,yes,A3MHKFOJIXO7QN
226,,incongruent,38,3NPI0JQDAPT4D4ROS5G95DU6WOSTP6,linda,none,prenominal,You see a parade of animals.,images/animal_parade_small.png,,1,6,1.00,3K1H3NEY7LNOWI4ZDUL5IG247TGDGZ,dogs,english,images/chihuahua.png,no,That's a big ,,dog,You say to your friend:,male,big,small,Mon Aug 05 2019 14:31:13 GMT-0500 (Central Daylight Time),1565033473302,This one is also in the parade.,main1,1,yes,A3RYI5HXC2MJLN
226,,incongruent,38,3NPI0JQDAPT4D4ROS5G95DU6WOSTP6,linda,none,prenominal,You see a collection of plants.,images/plant_parade_big.png,,1,6,1.00,3K1H3NEY7LNOWI4ZDUL5IG247TGDGZ,flowers,english,images/sunflower.png,no,That's a small ,,flower,You say to your friend:,male,small,big,Mon Aug 05 2019 14:31:13 GMT-0500 (Central Daylight Time),1565033473302,This one is also in the collection.,main1,2,yes,A3RYI5HXC2MJLN
226,,incongruent,38,3NPI0JQDAPT4D4ROS5G95DU6WOSTP6,linda,none,prenominal,You see a parade of animals.,images/fish_parade_big.png,,1,6,1.00,3K1H3NEY7LNOWI4ZDUL5IG247TGDGZ,fish,english,images/swordfish.png,no,That's a small ,,marlin,You say to your friend:,male,small,big,Mon Aug 05 2019 14:31:13 GMT-0500 (Central Daylight Time),1565033473302,This one is also in the parade.,main1,3,yes,A3RYI5HXC2MJLN
226,,incongruent,38,3NPI0JQDAPT4D4ROS5G95DU6WOSTP6,linda,none,prenominal,You see the following items in a landscape.,images/landscape_big.png,,1,6,1.00,3K1H3NEY7LNOWI4ZDUL5IG247TGDGZ,trees,english,images/redwood.png,no,That's a small ,,tree,You say to your friend:,male,small,big,Mon Aug 05 2019 14:31:13 GMT-0500 (Central Daylight Time),1565033473302,This one is also in the landscape.,main2,1,yes,A3RYI5HXC2MJLN
226,,incongruent,38,3NPI0JQDAPT4D4ROS5G95DU6WOSTP6,linda,none,prenominal,You see a parade of animals.,images/birds_parade_small.png,,1,6,1.00,3K1H3NEY7LNOWI4ZDUL5IG247TGDGZ,birds,english,images/hummingbird.png,no,That's a big ,,hummingbird,You say to your friend:,male,big,small,Mon Aug 05 2019 14:31:13 GMT-0500 (Central Daylight Time),1565033473302,This one is also in the parade.,main2,2,yes,A3RYI5HXC2MJLN
226,,incongruent,38,3NPI0JQDAPT4D4ROS5G95DU6WOSTP6,linda,none,prenominal,You see a parade of animals.,images/primates_parade_small.png,,1,6,1.00,3K1H3NEY7LNOWI4ZDUL5IG247TGDGZ,primates,english,images/spider-monkey.png,no,That's a big ,,monkey,You say to your friend:,male,big,small,Mon Aug 05 2019 14:31:13 GMT-0500 (Central Daylight Time),1565033473302,This one is also in the parade.,main2,3,yes,A3RYI5HXC2MJLN
225,,congruent,25,3VJ40NV2QJBMS4FND53UGDPGMJWOTK,linda,,predicative,You see the following items in a landscape.,images/landscape_small.png,some_college,2,6,1.00,3WA2XVDZEM5RRVTTXCN3C770DRE6EJ,trees,English,images/bonsai.png,None :),That , is small.,tree,You say to your friend:,female,small,small,Mon Aug 05 2019 15:28:31 GMT-0400 (Eastern Daylight Time),1565033311345,This one is also in the landscape.,main1,1,yes,A2QK87TCYPFR80
225,,congruent,25,3VJ40NV2QJBMS4FND53UGDPGMJWOTK,linda,,predicative,You see a parade of animals.,images/birds_parade_big.png,some_college,2,6,1.00,3WA2XVDZEM5RRVTTXCN3C770DRE6EJ,birds,English,images/swan.png,None :),That , is big.,swan,You say to your friend:,female,big,big,Mon Aug 05 2019 15:28:31 GMT-0400 (Eastern Daylight Time),1565033311345,This one is also in the parade.,main1,2,yes,A2QK87TCYPFR80
225,,congruent,25,3VJ40NV2QJBMS4FND53UGDPGMJWOTK,linda,,predicative,You see a parade of animals.,images/animal_parade_big.png,some_college,2,6,1.00,3WA2XVDZEM5RRVTTXCN3C770DRE6EJ,dogs,English,images/great-dane.png,None :),That , is big.,dog,You say to your friend:,female,big,big,Mon Aug 05 2019 15:28:31 GMT-0400 (Eastern Daylight Time),1565033311345,This one is also in the parade.,main1,3,yes,A2QK87TCYPFR80
225,,congruent,25,3VJ40NV2QJBMS4FND53UGDPGMJWOTK,linda,,predicative,You see a collection of plants.,images/plant_parade_small.png,some_college,2,6,1.00,3WA2XVDZEM5RRVTTXCN3C770DRE6EJ,flowers,English,images/daisy.png,None :),That , is small.,flower,You say to your friend:,female,small,small,Mon Aug 05 2019 15:28:31 GMT-0400 (Eastern Daylight Time),1565033311345,This one is also in the collection.,main2,1,yes,A2QK87TCYPFR80
225,,congruent,25,3VJ40NV2QJBMS4FND53UGDPGMJWOTK,linda,,predicative,You see a parade of animals.,images/fish_parade_big.png,some_college,2,6,1.00,3WA2XVDZEM5RRVTTXCN3C770DRE6EJ,fish,English,images/swordfish.png,None :),That , is big.,swordfish,You say to your friend:,female,big,big,Mon Aug 05 2019 15:28:31 GMT-0400 (Eastern Daylight Time),1565033311345,This one is also in the parade.,main2,2,yes,A2QK87TCYPFR80
225,,congruent,25,3VJ40NV2QJBMS4FND53UGDPGMJWOTK,linda,,predicative,You see a parade of animals.,images/primates_parade_small.png,some_college,2,6,1.00,3WA2XVDZEM5RRVTTXCN3C770DRE6EJ,primates,English,images/spider-monkey.png,None :),That , is small.,monkey,You say to your friend:,female,small,small,Mon Aug 05 2019 15:28:31 GMT-0400 (Eastern Daylight Time),1565033311345,This one is also in the parade.,main2,3,yes,A2QK87TCYPFR80
224,,congruent,43,3QUO65DNQVC1SHUCDAT4L9BI5X3OUB,Linda,none,predicative,You see a parade of animals.,images/birds_parade_small.png,graduated_college,2,6,.50,3B286OTISE50PDRO1QF6PSMEEI0AJY,birds,English,images/hummingbird.png,none,That , is small.,hummingbird,You say to your friend:,female,small,small,Mon Aug 05 2019 14:29:35 GMT-0500 (Central Daylight Time),1565033375855,This one is also in the parade.,main1,1,,A3A8P4UR9A0DWQ
224,,congruent,43,3QUO65DNQVC1SHUCDAT4L9BI5X3OUB,Linda,none,predicative,You see a collection of plants.,images/plant_parade_big.png,graduated_college,2,6,.50,3B286OTISE50PDRO1QF6PSMEEI0AJY,flowers,English,images/sunflower.png,none,That , is big.,sunflower,You say to your friend:,female,big,big,Mon Aug 05 2019 14:29:35 GMT-0500 (Central Daylight Time),1565033375855,This one is also in the collection.,main1,2,,A3A8P4UR9A0DWQ
224,,congruent,43,3QUO65DNQVC1SHUCDAT4L9BI5X3OUB,Linda,none,predicative,You see a parade of animals.,images/fish_parade_small.png,graduated_college,2,6,.50,3B286OTISE50PDRO1QF6PSMEEI0AJY,fish,English,images/goldfish.png,none,That , is small.,goldfish,You say to your friend:,female,small,small,Mon Aug 05 2019 14:29:35 GMT-0500 (Central Daylight Time),1565033375855,This one is also in the parade.,main1,3,,A3A8P4UR9A0DWQ
224,,congruent,43,3QUO65DNQVC1SHUCDAT4L9BI5X3OUB,Linda,none,predicative,You see a parade of animals.,images/primates_parade_big.png,graduated_college,2,6,.50,3B286OTISE50PDRO1QF6PSMEEI0AJY,primates,English,images/gorilla.png,none,That , is big.,gorilla,You say to your friend:,female,big,big,Mon Aug 05 2019 14:29:35 GMT-0500 (Central Daylight Time),1565033375855,This one is also in the parade.,main2,1,,A3A8P4UR9A0DWQ
224,,congruent,43,3QUO65DNQVC1SHUCDAT4L9BI5X3OUB,Linda,none,predicative,You see the following items in a landscape.,images/landscape_big.png,graduated_college,2,6,.50,3B286OTISE50PDRO1QF6PSMEEI0AJY,trees,English,images/redwood.png,none,That , is big.,tree,You say to your friend:,female,big,big,Mon Aug 05 2019 14:29:35 GMT-0500 (Central Daylight Time),1565033375855,This one is also in the landscape.,main2,2,,A3A8P4UR9A0DWQ
224,,congruent,43,3QUO65DNQVC1SHUCDAT4L9BI5X3OUB,Linda,none,predicative,You see a parade of animals.,images/animal_parade_small.png,graduated_college,2,6,.50,3B286OTISE50PDRO1QF6PSMEEI0AJY,dogs,English,images/chihuahua.png,none,That , is small.,dog,You say to your friend:,female,small,small,Mon Aug 05 2019 14:29:35 GMT-0500 (Central Daylight Time),1565033375855,This one is also in the parade.,main2,3,,A3A8P4UR9A0DWQ
223,,incongruent,25,3C8HJ7UOP8IUED3A6HDZAX1SCF5MZL,linda,,predicative,You see the following items in a landscape.,images/landscape_big.png,graduated_college,1,6,0.5,375VMB7D4J72S9AU3IL83SFKM68DIR,trees,English,images/redwood.png,,That , is small.,tree,You say to your friend:,female,small,big,Mon Aug 05 2019 14:32:42 GMT-0500 (Central Daylight Time),1565033562287,This one is also in the landscape.,main1,1,yes,APGX2WZ59OWDN
223,,incongruent,25,3C8HJ7UOP8IUED3A6HDZAX1SCF5MZL,linda,,predicative,You see a parade of animals.,images/fish_parade_big.png,graduated_college,1,6,0.5,375VMB7D4J72S9AU3IL83SFKM68DIR,fish,English,images/swordfish.png,,That , is small.,swordfish,You say to your friend:,female,small,big,Mon Aug 05 2019 14:32:42 GMT-0500 (Central Daylight Time),1565033562287,This one is also in the parade.,main1,2,yes,APGX2WZ59OWDN
223,,incongruent,25,3C8HJ7UOP8IUED3A6HDZAX1SCF5MZL,linda,,predicative,You see a parade of animals.,images/birds_parade_small.png,graduated_college,1,6,0.5,375VMB7D4J72S9AU3IL83SFKM68DIR,birds,English,images/hummingbird.png,,That , is big.,hummingbird,You say to your friend:,female,big,small,Mon Aug 05 2019 14:32:42 GMT-0500 (Central Daylight Time),1565033562287,This one is also in the parade.,main1,3,yes,APGX2WZ59OWDN
223,,incongruent,25,3C8HJ7UOP8IUED3A6HDZAX1SCF5MZL,linda,,predicative,You see a parade of animals.,images/animal_parade_small.png,graduated_college,1,6,0.5,375VMB7D4J72S9AU3IL83SFKM68DIR,dogs,English,images/chihuahua.png,,That , is big.,chihuahua,You say to your friend:,female,big,small,Mon Aug 05 2019 14:32:42 GMT-0500 (Central Daylight Time),1565033562287,This one is also in the parade.,main2,1,yes,APGX2WZ59OWDN
223,,incongruent,25,3C8HJ7UOP8IUED3A6HDZAX1SCF5MZL,linda,,predicative,You see a parade of animals.,images/primates_parade_big.png,graduated_college,1,6,0.5,375VMB7D4J72S9AU3IL83SFKM68DIR,primates,English,images/gorilla.png,,That , is small.,gorilla,You say to your friend:,female,small,big,Mon Aug 05 2019 14:32:42 GMT-0500 (Central Daylight Time),1565033562287,This one is also in the parade.,main2,2,yes,APGX2WZ59OWDN
223,,incongruent,25,3C8HJ7UOP8IUED3A6HDZAX1SCF5MZL,linda,,predicative,You see a collection of plants.,images/plant_parade_small.png,graduated_college,1,6,0.5,375VMB7D4J72S9AU3IL83SFKM68DIR,flowers,English,images/daisy.png,,That , is big.,flower,You say to your friend:,female,big,small,Mon Aug 05 2019 14:32:42 GMT-0500 (Central Daylight Time),1565033562287,This one is also in the collection.,main2,3,yes,APGX2WZ59OWDN
222,,congruent,32,3QIYRE09Y4531Z32A7J7VI6G4Q2N1X,Elizabeth,none,predicative,You see a collection of plants.,images/plant_parade_small.png,graduated_college,2,6,05,3K1H3NEY7LNOWI4ZDUL5IG247TGDGZ,flowers,English ,images/daisy.png,none,That , is small.,Plant,You say to your friend:,male,small,small,Mon Aug 05 2019 22:30:02 GMT+0300 (East Africa Time),1565033402043,This one is also in the collection.,main1,1,,A245CIYS63PTF2
222,,congruent,32,3QIYRE09Y4531Z32A7J7VI6G4Q2N1X,Elizabeth,none,predicative,You see a parade of animals.,images/fish_parade_big.png,graduated_college,2,6,05,3K1H3NEY7LNOWI4ZDUL5IG247TGDGZ,fish,English ,images/swordfish.png,none,That , is big.,whale,You say to your friend:,male,big,big,Mon Aug 05 2019 22:30:02 GMT+0300 (East Africa Time),1565033402043,This one is also in the parade.,main1,2,,A245CIYS63PTF2
222,,congruent,32,3QIYRE09Y4531Z32A7J7VI6G4Q2N1X,Elizabeth,none,predicative,You see the following items in a landscape.,images/landscape_small.png,graduated_college,2,6,05,3K1H3NEY7LNOWI4ZDUL5IG247TGDGZ,trees,English ,images/bonsai.png,none,That , is small.,tree,You say to your friend:,male,small,small,Mon Aug 05 2019 22:30:02 GMT+0300 (East Africa Time),1565033402043,This one is also in the landscape.,main1,3,,A245CIYS63PTF2
222,,congruent,32,3QIYRE09Y4531Z32A7J7VI6G4Q2N1X,Elizabeth,none,predicative,You see a parade of animals.,images/animal_parade_big.png,graduated_college,2,6,05,3K1H3NEY7LNOWI4ZDUL5IG247TGDGZ,dogs,English ,images/great-dane.png,none,That , is big.,dog,You say to your friend:,male,big,big,Mon Aug 05 2019 22:30:02 GMT+0300 (East Africa Time),1565033402043,This one is also in the parade.,main2,1,,A245CIYS63PTF2
222,,congruent,32,3QIYRE09Y4531Z32A7J7VI6G4Q2N1X,Elizabeth,none,predicative,You see a parade of animals.,images/birds_parade_big.png,graduated_college,2,6,05,3K1H3NEY7LNOWI4ZDUL5IG247TGDGZ,birds,English ,images/swan.png,none,That , is big.,duck,You say to your friend:,male,big,big,Mon Aug 05 2019 22:30:02 GMT+0300 (East Africa Time),1565033402043,This one is also in the parade.,main2,2,,A245CIYS63PTF2
222,,congruent,32,3QIYRE09Y4531Z32A7J7VI6G4Q2N1X,Elizabeth,none,predicative,You see a parade of animals.,images/primates_parade_small.png,graduated_college,2,6,05,3K1H3NEY7LNOWI4ZDUL5IG247TGDGZ,primates,English ,images/spider-monkey.png,none,That , is small.,monkey,You say to your friend:,male,small,small,Mon Aug 05 2019 22:30:02 GMT+0300 (East Africa Time),1565033402043,This one is also in the parade.,main2,3,,A245CIYS63PTF2
221,,congruent,28,3OB0CAO74ID8H9SUJYV34LKUPZ0YHV,jessica,,prenominal,You see the following items in a landscape.,images/landscape_small.png,graduated_college,1,6,0.6,3WA2XVDZEM5RRVTTXCN3C770DRE6EJ,trees,English,images/bonsai.png,No,That's a small ,,bonsai tree,You say to your friend:,male,small,small,Mon Aug 05 2019 12:30:00 GMT-0700 (Pacific Daylight Time),1565033400229,This one is also in the landscape.,main1,1,yes,A36KQFLIXQTAQ
221,,congruent,28,3OB0CAO74ID8H9SUJYV34LKUPZ0YHV,jessica,,prenominal,You see a parade of animals.,images/birds_parade_big.png,graduated_college,1,6,0.6,3WA2XVDZEM5RRVTTXCN3C770DRE6EJ,birds,English,images/swan.png,No,That's a big ,,swan,You say to your friend:,male,big,big,Mon Aug 05 2019 12:30:00 GMT-0700 (Pacific Daylight Time),1565033400229,This one is also in the parade.,main1,2,yes,A36KQFLIXQTAQ
221,,congruent,28,3OB0CAO74ID8H9SUJYV34LKUPZ0YHV,jessica,,prenominal,You see a parade of animals.,images/animal_parade_big.png,graduated_college,1,6,0.6,3WA2XVDZEM5RRVTTXCN3C770DRE6EJ,dogs,English,images/great-dane.png,No,That's a big ,,grey dog,You say to your friend:,male,big,big,Mon Aug 05 2019 12:30:00 GMT-0700 (Pacific Daylight Time),1565033400229,This one is also in the parade.,main1,3,yes,A36KQFLIXQTAQ
221,,congruent,28,3OB0CAO74ID8H9SUJYV34LKUPZ0YHV,jessica,,prenominal,You see a parade of animals.,images/primates_parade_small.png,graduated_college,1,6,0.6,3WA2XVDZEM5RRVTTXCN3C770DRE6EJ,primates,English,images/spider-monkey.png,No,That's a small ,,straight tail monkey,You say to your friend:,male,small,small,Mon Aug 05 2019 12:30:00 GMT-0700 (Pacific Daylight Time),1565033400229,This one is also in the parade.,main2,1,yes,A36KQFLIXQTAQ
221,,congruent,28,3OB0CAO74ID8H9SUJYV34LKUPZ0YHV,jessica,,prenominal,You see a parade of animals.,images/fish_parade_small.png,graduated_college,1,6,0.6,3WA2XVDZEM5RRVTTXCN3C770DRE6EJ,fish,English,images/goldfish.png,No,That's a small ,,goldfish,You say to your friend:,male,small,small,Mon Aug 05 2019 12:30:00 GMT-0700 (Pacific Daylight Time),1565033400229,This one is also in the parade.,main2,2,yes,A36KQFLIXQTAQ
221,,congruent,28,3OB0CAO74ID8H9SUJYV34LKUPZ0YHV,jessica,,prenominal,You see a collection of plants.,images/plant_parade_big.png,graduated_college,1,6,0.6,3WA2XVDZEM5RRVTTXCN3C770DRE6EJ,flowers,English,images/sunflower.png,No,That's a big ,,sunflower,You say to your friend:,male,big,big,Mon Aug 05 2019 12:30:00 GMT-0700 (Pacific Daylight Time),1565033400229,This one is also in the collection.,main2,3,yes,A36KQFLIXQTAQ
220,,congruent,28,3V5Q80FXIYF3MGSOBSZ6RNIFRFQ23E,patricia,Thanks,prenominal,You see a parade of animals.,images/birds_parade_small.png,graduated_college,1,6,1.00,3E6L1VR4XWAJX9TPSN79UPS0PST6F1,birds,English,images/hummingbird.png,,That's a small ,,hummingbird,You say to your friend:,female,small,small,Mon Aug 05 2019 14:30:49 GMT-0500 (Central Daylight Time),1565033449862,This one is also in the parade.,main1,1,yes,A3TUCOUVSP9ZGY
220,,congruent,28,3V5Q80FXIYF3MGSOBSZ6RNIFRFQ23E,patricia,Thanks,prenominal,You see a collection of plants.,images/plant_parade_small.png,graduated_college,1,6,1.00,3E6L1VR4XWAJX9TPSN79UPS0PST6F1,flowers,English,images/daisy.png,,That's a small ,,flower,You say to your friend:,female,small,small,Mon Aug 05 2019 14:30:49 GMT-0500 (Central Daylight Time),1565033449862,This one is also in the collection.,main1,2,yes,A3TUCOUVSP9ZGY
220,,congruent,28,3V5Q80FXIYF3MGSOBSZ6RNIFRFQ23E,patricia,Thanks,prenominal,You see a parade of animals.,images/primates_parade_small.png,graduated_college,1,6,1.00,3E6L1VR4XWAJX9TPSN79UPS0PST6F1,primates,English,images/spider-monkey.png,,That's a small ,,monkey,You say to your friend:,female,small,small,Mon Aug 05 2019 14:30:49 GMT-0500 (Central Daylight Time),1565033449862,This one is also in the parade.,main1,3,yes,A3TUCOUVSP9ZGY
220,,congruent,28,3V5Q80FXIYF3MGSOBSZ6RNIFRFQ23E,patricia,Thanks,prenominal,You see a parade of animals.,images/animal_parade_big.png,graduated_college,1,6,1.00,3E6L1VR4XWAJX9TPSN79UPS0PST6F1,dogs,English,images/great-dane.png,,That's a big ,,dog,You say to your friend:,female,big,big,Mon Aug 05 2019 14:30:49 GMT-0500 (Central Daylight Time),1565033449862,This one is also in the parade.,main2,1,yes,A3TUCOUVSP9ZGY
220,,congruent,28,3V5Q80FXIYF3MGSOBSZ6RNIFRFQ23E,patricia,Thanks,prenominal,You see a parade of animals.,images/fish_parade_big.png,graduated_college,1,6,1.00,3E6L1VR4XWAJX9TPSN79UPS0PST6F1,fish,English,images/swordfish.png,,That's a big ,,marlin,You say to your friend:,female,big,big,Mon Aug 05 2019 14:30:49 GMT-0500 (Central Daylight Time),1565033449862,This one is also in the parade.,main2,2,yes,A3TUCOUVSP9ZGY
220,,congruent,28,3V5Q80FXIYF3MGSOBSZ6RNIFRFQ23E,patricia,Thanks,prenominal,You see the following items in a landscape.,images/landscape_big.png,graduated_college,1,6,1.00,3E6L1VR4XWAJX9TPSN79UPS0PST6F1,trees,English,images/redwood.png,,That's a big ,,tree,You say to your friend:,female,big,big,Mon Aug 05 2019 14:30:49 GMT-0500 (Central Daylight Time),1565033449862,This one is also in the landscape.,main2,3,yes,A3TUCOUVSP9ZGY
219,,incongruent,29,37U1UTWH9WA6RXFF2Z93JCYYJTVR87,sarah,,prenominal,You see the following items in a landscape.,images/landscape_big.png,graduated_college,1,6,1.0,3K1H3NEY7LNOWI4ZDUL5IG247TGDGZ,trees,"English, Portuguese",images/redwood.png,No,That's a small ,,tree,You say to your friend:,male,small,big,Mon Aug 05 2019 12:28:26 GMT-0700 (Pacific Daylight Time),1565033306668,This one is also in the landscape.,main1,1,yes,AD7A7J28H5JDT
219,,incongruent,29,37U1UTWH9WA6RXFF2Z93JCYYJTVR87,sarah,,prenominal,You see a parade of animals.,images/birds_parade_small.png,graduated_college,1,6,1.0,3K1H3NEY7LNOWI4ZDUL5IG247TGDGZ,birds,"English, Portuguese",images/hummingbird.png,No,That's a big ,,hummingbird,You say to your friend:,male,big,small,Mon Aug 05 2019 12:28:26 GMT-0700 (Pacific Daylight Time),1565033306668,This one is also in the parade.,main1,2,yes,AD7A7J28H5JDT
219,,incongruent,29,37U1UTWH9WA6RXFF2Z93JCYYJTVR87,sarah,,prenominal,You see a collection of plants.,images/plant_parade_big.png,graduated_college,1,6,1.0,3K1H3NEY7LNOWI4ZDUL5IG247TGDGZ,flowers,"English, Portuguese",images/sunflower.png,No,That's a small ,,sunflower,You say to your friend:,male,small,big,Mon Aug 05 2019 12:28:26 GMT-0700 (Pacific Daylight Time),1565033306668,This one is also in the collection.,main1,3,yes,AD7A7J28H5JDT
219,,incongruent,29,37U1UTWH9WA6RXFF2Z93JCYYJTVR87,sarah,,prenominal,You see a parade of animals.,images/primates_parade_small.png,graduated_college,1,6,1.0,3K1H3NEY7LNOWI4ZDUL5IG247TGDGZ,primates,"English, Portuguese",images/spider-monkey.png,No,That's a big ,,monkey,You say to your friend:,male,big,small,Mon Aug 05 2019 12:28:26 GMT-0700 (Pacific Daylight Time),1565033306668,This one is also in the parade.,main2,1,yes,AD7A7J28H5JDT
219,,incongruent,29,37U1UTWH9WA6RXFF2Z93JCYYJTVR87,sarah,,prenominal,You see a parade of animals.,images/animal_parade_small.png,graduated_college,1,6,1.0,3K1H3NEY7LNOWI4ZDUL5IG247TGDGZ,dogs,"English, Portuguese",images/chihuahua.png,No,That's a big ,,dog,You say to your friend:,male,big,small,Mon Aug 05 2019 12:28:26 GMT-0700 (Pacific Daylight Time),1565033306668,This one is also in the parade.,main2,2,yes,AD7A7J28H5JDT
219,,incongruent,29,37U1UTWH9WA6RXFF2Z93JCYYJTVR87,sarah,,prenominal,You see a parade of animals.,images/fish_parade_big.png,graduated_college,1,6,1.0,3K1H3NEY7LNOWI4ZDUL5IG247TGDGZ,fish,"English, Portuguese",images/swordfish.png,No,That's a small ,,fish,You say to your friend:,male,small,big,Mon Aug 05 2019 12:28:26 GMT-0700 (Pacific Daylight Time),1565033306668,This one is also in the parade.,main2,3,yes,AD7A7J28H5JDT
218,,incongruent,25,3H8DHMCCWAZWLOYBTNBM4SQLZS0DK8,sarah,,prenominal,You see the following items in a landscape.,images/landscape_big.png,some_college,1,6,1,3E6L1VR4XWAJX9TPSN79UPS0PST6F1,trees,English,images/redwood.png,,That's a small ,,branch,You say to your friend:,male,small,big,Mon Aug 05 2019 14:29:15 GMT-0500 (Central Daylight Time),1565033355023,This one is also in the landscape.,main1,1,confused,A3UEM5PCYERMXX
218,,incongruent,25,3H8DHMCCWAZWLOYBTNBM4SQLZS0DK8,sarah,,prenominal,You see a parade of animals.,images/primates_parade_small.png,some_college,1,6,1,3E6L1VR4XWAJX9TPSN79UPS0PST6F1,primates,English,images/spider-monkey.png,,That's a big ,,tail,You say to your friend:,male,big,small,Mon Aug 05 2019 14:29:15 GMT-0500 (Central Daylight Time),1565033355023,This one is also in the parade.,main1,2,confused,A3UEM5PCYERMXX
218,,incongruent,25,3H8DHMCCWAZWLOYBTNBM4SQLZS0DK8,sarah,,prenominal,You see a collection of plants.,images/plant_parade_small.png,some_college,1,6,1,3E6L1VR4XWAJX9TPSN79UPS0PST6F1,flowers,English,images/daisy.png,,That's a big ,,flower,You say to your friend:,male,big,small,Mon Aug 05 2019 14:29:15 GMT-0500 (Central Daylight Time),1565033355023,This one is also in the collection.,main1,3,confused,A3UEM5PCYERMXX
218,,incongruent,25,3H8DHMCCWAZWLOYBTNBM4SQLZS0DK8,sarah,,prenominal,You see a parade of animals.,images/birds_parade_big.png,some_college,1,6,1,3E6L1VR4XWAJX9TPSN79UPS0PST6F1,birds,English,images/swan.png,,That's a small ,,goose,You say to your friend:,male,small,big,Mon Aug 05 2019 14:29:15 GMT-0500 (Central Daylight Time),1565033355023,This one is also in the parade.,main2,1,confused,A3UEM5PCYERMXX
218,,incongruent,25,3H8DHMCCWAZWLOYBTNBM4SQLZS0DK8,sarah,,prenominal,You see a parade of animals.,images/fish_parade_big.png,some_college,1,6,1,3E6L1VR4XWAJX9TPSN79UPS0PST6F1,fish,English,images/swordfish.png,,That's a small ,,swordfish,You say to your friend:,male,small,big,Mon Aug 05 2019 14:29:15 GMT-0500 (Central Daylight Time),1565033355023,This one is also in the parade.,main2,2,confused,A3UEM5PCYERMXX
218,,incongruent,25,3H8DHMCCWAZWLOYBTNBM4SQLZS0DK8,sarah,,prenominal,You see a parade of animals.,images/animal_parade_small.png,some_college,1,6,1,3E6L1VR4XWAJX9TPSN79UPS0PST6F1,dogs,English,images/chihuahua.png,,That's a big ,,dog,You say to your friend:,male,big,small,Mon Aug 05 2019 14:29:15 GMT-0500 (Central Daylight Time),1565033355023,This one is also in the parade.,main2,3,confused,A3UEM5PCYERMXX
217,,congruent,43,3LKC68YZ3BREKLJH8A853XWFQDEOWA,Barbara,,prenominal,You see a collection of plants.,images/plant_parade_small.png,some_college,1,6,0.50,3E6L1VR4XWAJX9TPSN79UPS0PST6F1,flowers,English,images/daisy.png,No.,That's a small ,,Daisy,You say to your friend:,female,small,small,Mon Aug 05 2019 12:28:30 GMT-0700 (Pacific Daylight Time),1565033310822,This one is also in the collection.,main1,1,yes,A1XH62A94I3U61
217,,congruent,43,3LKC68YZ3BREKLJH8A853XWFQDEOWA,Barbara,,prenominal,You see a parade of animals.,images/fish_parade_big.png,some_college,1,6,0.50,3E6L1VR4XWAJX9TPSN79UPS0PST6F1,fish,English,images/swordfish.png,No.,That's a big ,,Swordfish,You say to your friend:,female,big,big,Mon Aug 05 2019 12:28:30 GMT-0700 (Pacific Daylight Time),1565033310822,This one is also in the parade.,main1,2,yes,A1XH62A94I3U61
217,,congruent,43,3LKC68YZ3BREKLJH8A853XWFQDEOWA,Barbara,,prenominal,You see a parade of animals.,images/animal_parade_big.png,some_college,1,6,0.50,3E6L1VR4XWAJX9TPSN79UPS0PST6F1,dogs,English,images/great-dane.png,No.,That's a big ,,Dog,You say to your friend:,female,big,big,Mon Aug 05 2019 12:28:30 GMT-0700 (Pacific Daylight Time),1565033310822,This one is also in the parade.,main1,3,yes,A1XH62A94I3U61
217,,congruent,43,3LKC68YZ3BREKLJH8A853XWFQDEOWA,Barbara,,prenominal,You see a parade of animals.,images/primates_parade_big.png,some_college,1,6,0.50,3E6L1VR4XWAJX9TPSN79UPS0PST6F1,primates,English,images/gorilla.png,No.,That's a big ,,Gorilla,You say to your friend:,female,big,big,Mon Aug 05 2019 12:28:30 GMT-0700 (Pacific Daylight Time),1565033310822,This one is also in the parade.,main2,1,yes,A1XH62A94I3U61
217,,congruent,43,3LKC68YZ3BREKLJH8A853XWFQDEOWA,Barbara,,prenominal,You see the following items in a landscape.,images/landscape_small.png,some_college,1,6,0.50,3E6L1VR4XWAJX9TPSN79UPS0PST6F1,trees,English,images/bonsai.png,No.,That's a small ,,Bonsai Tree,You say to your friend:,female,small,small,Mon Aug 05 2019 12:28:30 GMT-0700 (Pacific Daylight Time),1565033310822,This one is also in the landscape.,main2,2,yes,A1XH62A94I3U61
217,,congruent,43,3LKC68YZ3BREKLJH8A853XWFQDEOWA,Barbara,,prenominal,You see a parade of animals.,images/birds_parade_small.png,some_college,1,6,0.50,3E6L1VR4XWAJX9TPSN79UPS0PST6F1,birds,English,images/hummingbird.png,No.,That's a small ,,Hummingbird,You say to your friend:,female,small,small,Mon Aug 05 2019 12:28:30 GMT-0700 (Pacific Daylight Time),1565033310822,This one is also in the parade.,main2,3,yes,A1XH62A94I3U61
216,,congruent,32,3EA3QWIZ4JJCWI4KFAQPWGTUAAZITL,susan,,predicative,You see a parade of animals.,images/birds_parade_big.png,some_college,2,6,1.00,3B286OTISE50PDRO1QF6PSMEEI0AJY,birds,English,images/swan.png,no,That , is big.,swan,You say to your friend:,female,big,big,Mon Aug 05 2019 15:30:06 GMT-0400 (Eastern Daylight Time),1565033406474,This one is also in the parade.,main1,1,yes,A2NJ7N8INZOB00
