submission_id,response1,startDate,context_picture,experiment_id,picture2,correct1,question1,problems,enjoyment,hit_id,item,botresponse,assignment_id,correct2,understand,text,condition,sentence,age,response,comments,picture1,response3,education,worker_id,languages,sex,RT,correct3,context,trial_number,startTime,attempts,picture,question3,fairprice,question2,size,response2,trial_name
433,swan,Mon Aug 26 2019 11:25:49 GMT-0400 (Eastern Daylight Time),NA,10,warmup/canary.jpg,swan,This is a ,,,3CMV9YRYP3PHLWISYH4WY62P8P2LJK,birds,patricia,3C2NJ6JBKB5AQKLYTBJL01GL0BE2NP,canary,yes,Please label the pictures below.,NA,NA,28,NA,,warmup/swan.jpg,birds,,A33T45FNLQC14X,,,NA,birds,NA,1,1566833149190,1,NA,This is a ,,These are both,NA,hummingbird,warmup1
433,swan,Mon Aug 26 2019 11:25:49 GMT-0400 (Eastern Daylight Time),NA,10,warmup/canary.jpg,swan,This is a ,,,3CMV9YRYP3PHLWISYH4WY62P8P2LJK,birds,patricia,3C2NJ6JBKB5AQKLYTBJL01GL0BE2NP,canary,yes,Please label the pictures below.,NA,NA,28,NA,,warmup/swan.jpg,birds,,A33T45FNLQC14X,,,NA,birds,NA,1,1566833149190,2,NA,This is a ,,These are both,NA,canary,warmup1
433,swordfish,Mon Aug 26 2019 11:25:49 GMT-0400 (Eastern Daylight Time),NA,10,warmup/goldfish.png,swordfish,This is a ,,,3CMV9YRYP3PHLWISYH4WY62P8P2LJK,fish,patricia,3C2NJ6JBKB5AQKLYTBJL01GL0BE2NP,goldfish,yes,Please label the pictures below.,NA,NA,28,NA,,warmup/swordfish.jpg,fish,,A33T45FNLQC14X,,,NA,fish,NA,2,1566833149190,1,NA,This is a ,,These are both,NA,redfush,warmup1
433,swordfish,Mon Aug 26 2019 11:25:49 GMT-0400 (Eastern Daylight Time),NA,10,warmup/goldfish.png,swordfish,This is a ,,,3CMV9YRYP3PHLWISYH4WY62P8P2LJK,fish,patricia,3C2NJ6JBKB5AQKLYTBJL01GL0BE2NP,goldfish,yes,Please label the pictures below.,NA,NA,28,NA,,warmup/swordfish.jpg,fish,,A33T45FNLQC14X,,,NA,fish,NA,2,1566833149190,2,NA,This is a ,,These are both,NA,goldfish,warmup1
433,dog,Mon Aug 26 2019 11:25:49 GMT-0400 (Eastern Daylight Time),NA,10,warmup/doberman.png,chihuahua,This is a ,,,3CMV9YRYP3PHLWISYH4WY62P8P2LJK,dogs,patricia,3C2NJ6JBKB5AQKLYTBJL01GL0BE2NP,doberman,yes,Please label the pictures below.,NA,NA,28,NA,,warmup/chihuahua.jpg,dogs,,A33T45FNLQC14X,,,NA,dogs,NA,3,1566833149190,1,NA,This is a ,,These are both,NA,dogs,warmup1
433,chihuahua,Mon Aug 26 2019 11:25:49 GMT-0400 (Eastern Daylight Time),NA,10,warmup/doberman.png,chihuahua,This is a ,,,3CMV9YRYP3PHLWISYH4WY62P8P2LJK,dogs,patricia,3C2NJ6JBKB5AQKLYTBJL01GL0BE2NP,doberman,yes,Please label the pictures below.,NA,NA,28,NA,,warmup/chihuahua.jpg,dogs,,A33T45FNLQC14X,,,NA,dogs,NA,3,1566833149190,2,NA,This is a ,,These are both,NA,doberman,warmup1
433,NA,Mon Aug 26 2019 11:25:49 GMT-0400 (Eastern Daylight Time),images/dog-parade.png,10,NA,NA,That's a big ,,,3CMV9YRYP3PHLWISYH4WY62P8P2LJK,dogs,patricia,3C2NJ6JBKB5AQKLYTBJL01GL0BE2NP,NA,yes,This one is also in the parade.,prenominal,You say to your friend:,28,doberman,,NA,NA,,A33T45FNLQC14X,,,,NA,You see a parade of animals.,1,1566833149190,NA,images/doberman.png,NA,,,big,NA,main1
433,NA,Mon Aug 26 2019 11:25:49 GMT-0400 (Eastern Daylight Time),images/bird-parade3.png,10,NA,NA,That's a small ,,,3CMV9YRYP3PHLWISYH4WY62P8P2LJK,birds,patricia,3C2NJ6JBKB5AQKLYTBJL01GL0BE2NP,NA,yes,This one is also in the parade.,prenominal,You say to your friend:,28,canary,,NA,NA,,A33T45FNLQC14X,,,,NA,You see a parade of animals.,2,1566833149190,NA,images/canary.png,NA,,,small,NA,main1
433,NA,Mon Aug 26 2019 11:25:49 GMT-0400 (Eastern Daylight Time),images/fish-parade.png,10,NA,NA,That's a small ,,,3CMV9YRYP3PHLWISYH4WY62P8P2LJK,fish,patricia,3C2NJ6JBKB5AQKLYTBJL01GL0BE2NP,NA,yes,This one is also in the parade.,prenominal,You say to your friend:,28,goldfish,,NA,NA,,A33T45FNLQC14X,,,,NA,You see a parade of animals.,3,1566833149190,NA,images/goldfish.png,NA,,,small,NA,main1
433,daisy,Mon Aug 26 2019 11:25:49 GMT-0400 (Eastern Daylight Time),NA,10,warmup/peony.png,daisy,This is a ,,,3CMV9YRYP3PHLWISYH4WY62P8P2LJK,flowers,patricia,3C2NJ6JBKB5AQKLYTBJL01GL0BE2NP,peony,yes,Please label the pictures below.,NA,NA,28,NA,,warmup/daisy.png,flowers,,A33T45FNLQC14X,,,NA,flowers,NA,1,1566833149190,1,NA,This is a ,,These are both,NA,rose,warmup2
433,daisy,Mon Aug 26 2019 11:25:49 GMT-0400 (Eastern Daylight Time),NA,10,warmup/peony.png,daisy,This is a ,,,3CMV9YRYP3PHLWISYH4WY62P8P2LJK,flowers,patricia,3C2NJ6JBKB5AQKLYTBJL01GL0BE2NP,peony,yes,Please label the pictures below.,NA,NA,28,NA,,warmup/daisy.png,flowers,,A33T45FNLQC14X,,,NA,flowers,NA,1,1566833149190,2,NA,This is a ,,These are both,NA,peony,warmup2
433,redwood,Mon Aug 26 2019 11:25:49 GMT-0400 (Eastern Daylight Time),NA,10,warmup/bonsai.jpg,redwood|sequoia,This is a ,,,3CMV9YRYP3PHLWISYH4WY62P8P2LJK,trees,patricia,3C2NJ6JBKB5AQKLYTBJL01GL0BE2NP,bonsai,yes,Please label the pictures below.,NA,NA,28,NA,,warmup/sequoia.jpg,trees,,A33T45FNLQC14X,,,NA,trees,NA,2,1566833149190,1,NA,This is a ,,These are both,NA,bonsai,warmup2
433,daisy,Mon Aug 26 2019 11:25:49 GMT-0400 (Eastern Daylight Time),NA,10,warmup/sunflower.png,dandelion,This is a ,,,3CMV9YRYP3PHLWISYH4WY62P8P2LJK,flowers,patricia,3C2NJ6JBKB5AQKLYTBJL01GL0BE2NP,sunflower,yes,Please label the pictures below.,NA,NA,28,NA,,warmup/dandelion.jpg,flowers,,A33T45FNLQC14X,,,NA,flowers,NA,3,1566833149190,1,NA,This is a ,,These are both,NA,sunflower,warmup2
433,dandelion,Mon Aug 26 2019 11:25:49 GMT-0400 (Eastern Daylight Time),NA,10,warmup/sunflower.png,dandelion,This is a ,,,3CMV9YRYP3PHLWISYH4WY62P8P2LJK,flowers,patricia,3C2NJ6JBKB5AQKLYTBJL01GL0BE2NP,sunflower,yes,Please label the pictures below.,NA,NA,28,NA,,warmup/dandelion.jpg,flowers,,A33T45FNLQC14X,,,NA,flowers,NA,3,1566833149190,2,NA,This is a ,,These are both,NA,SUNFLOWER,warmup2
433,NA,Mon Aug 26 2019 11:25:49 GMT-0400 (Eastern Daylight Time),images/tree-parade.png,10,NA,NA,That's a big ,,,3CMV9YRYP3PHLWISYH4WY62P8P2LJK,trees,patricia,3C2NJ6JBKB5AQKLYTBJL01GL0BE2NP,NA,yes,This one is also in the landscape.,prenominal,You say to your friend:,28,redwood,,NA,NA,,A33T45FNLQC14X,,,,NA,You see the following items in a landscape.,1,1566833149190,NA,images/sequoia.png,NA,,,big,NA,main2
433,NA,Mon Aug 26 2019 11:25:49 GMT-0400 (Eastern Daylight Time),images/flower-parade.png,10,NA,NA,That's a big ,,,3CMV9YRYP3PHLWISYH4WY62P8P2LJK,flowers,patricia,3C2NJ6JBKB5AQKLYTBJL01GL0BE2NP,NA,yes,This one is also in the collection.,prenominal,You say to your friend:,28,dandelion,,NA,NA,,A33T45FNLQC14X,,,,NA,You see a collection of plants.,2,1566833149190,NA,images/peony.png,NA,,,big,NA,main2
433,NA,Mon Aug 26 2019 11:25:49 GMT-0400 (Eastern Daylight Time),images/flower-parade2.png,10,NA,NA,That's a small ,,,3CMV9YRYP3PHLWISYH4WY62P8P2LJK,flowers,patricia,3C2NJ6JBKB5AQKLYTBJL01GL0BE2NP,NA,yes,This one is also in the collection.,prenominal,You say to your friend:,28,daisy,,NA,NA,,A33T45FNLQC14X,,,,NA,You see a collection of plants.,3,1566833149190,NA,images/dandelion.png,NA,,,small,NA,main2
432,hummingbird,Mon Aug 26 2019 11:16:50 GMT-0400 (Eastern Daylight Time),NA,10,warmup/eagle.jpg,hummingbird,This is a ,I had no problems,2,3DW3BNF1GH6VXKY3LH9BWPRDJCA8V6,birds,sarah,3WETL7AQWUWVLDBBTB14PULRF49538,eagle,yes,Please label the pictures below.,NA,NA,37,NA,"I have none, thanks!",warmup/colibri.jpg,birds,graduated_college,A1NR3COO33J99C,english,male,NA,birds,NA,1,1566832610147,1,NA,This is an ,1.00,These are both,NA,eagle,warmup1
432,tuna,Mon Aug 26 2019 11:16:50 GMT-0400 (Eastern Daylight Time),NA,10,warmup/clownfish.jpg,tuna,This is a ,I had no problems,2,3DW3BNF1GH6VXKY3LH9BWPRDJCA8V6,fish,sarah,3WETL7AQWUWVLDBBTB14PULRF49538,clownfish,yes,Please label the pictures below.,NA,NA,37,NA,"I have none, thanks!",warmup/tuna.jpg,fish,graduated_college,A1NR3COO33J99C,english,male,NA,fish,NA,2,1566832610147,1,NA,This is a ,1.00,These are both,NA,nemo,warmup1
432,tuna,Mon Aug 26 2019 11:16:50 GMT-0400 (Eastern Daylight Time),NA,10,warmup/clownfish.jpg,tuna,This is a ,I had no problems,2,3DW3BNF1GH6VXKY3LH9BWPRDJCA8V6,fish,sarah,3WETL7AQWUWVLDBBTB14PULRF49538,clownfish,yes,Please label the pictures below.,NA,NA,37,NA,"I have none, thanks!",warmup/tuna.jpg,fish,graduated_college,A1NR3COO33J99C,english,male,NA,fish,NA,2,1566832610147,2,NA,This is a ,1.00,These are both,NA,clownfish,warmup1
432,swordfish,Mon Aug 26 2019 11:16:50 GMT-0400 (Eastern Daylight Time),NA,10,warmup/goldfish.png,swordfish,This is a ,I had no problems,2,3DW3BNF1GH6VXKY3LH9BWPRDJCA8V6,fish,sarah,3WETL7AQWUWVLDBBTB14PULRF49538,goldfish,yes,Please label the pictures below.,NA,NA,37,NA,"I have none, thanks!",warmup/swordfish.jpg,fish,graduated_college,A1NR3COO33J99C,english,male,NA,fish,NA,3,1566832610147,1,NA,This is a ,1.00,These are both,NA,goldfish,warmup1
432,NA,Mon Aug 26 2019 11:16:50 GMT-0400 (Eastern Daylight Time),images/fish-parade2.png,10,NA,NA,That's a small ,I had no problems,2,3DW3BNF1GH6VXKY3LH9BWPRDJCA8V6,fish,sarah,3WETL7AQWUWVLDBBTB14PULRF49538,NA,yes,This one is also in the parade.,prenominal,You say to your friend:,37,clownfish,"I have none, thanks!",NA,NA,graduated_college,A1NR3COO33J99C,english,male,,NA,You see a parade of animals.,1,1566832610147,NA,images/clownfish.png,NA,1.00,,small,NA,main1
432,NA,Mon Aug 26 2019 11:16:50 GMT-0400 (Eastern Daylight Time),images/bird-parade2.png,10,NA,NA,That's a big ,I had no problems,2,3DW3BNF1GH6VXKY3LH9BWPRDJCA8V6,birds,sarah,3WETL7AQWUWVLDBBTB14PULRF49538,NA,yes,This one is also in the parade.,prenominal,You say to your friend:,37,eagle,"I have none, thanks!",NA,NA,graduated_college,A1NR3COO33J99C,english,male,,NA,You see a parade of animals.,2,1566832610147,NA,images/eagle.png,NA,1.00,,big,NA,main1
432,NA,Mon Aug 26 2019 11:16:50 GMT-0400 (Eastern Daylight Time),images/fish-parade.png,10,NA,NA,That's a small ,I had no problems,2,3DW3BNF1GH6VXKY3LH9BWPRDJCA8V6,fish,sarah,3WETL7AQWUWVLDBBTB14PULRF49538,NA,yes,This one is also in the parade.,prenominal,You say to your friend:,37,goldfish,"I have none, thanks!",NA,NA,graduated_college,A1NR3COO33J99C,english,male,,NA,You see a parade of animals.,3,1566832610147,NA,images/goldfish.png,NA,1.00,,small,NA,main1
432,dog,Mon Aug 26 2019 11:16:50 GMT-0400 (Eastern Daylight Time),NA,10,warmup/great-dane.jpg,pug,This is a ,I had no problems,2,3DW3BNF1GH6VXKY3LH9BWPRDJCA8V6,dogs,sarah,3WETL7AQWUWVLDBBTB14PULRF49538,great dane,yes,Please label the pictures below.,NA,NA,37,NA,"I have none, thanks!",warmup/pug.jpg,dogs,graduated_college,A1NR3COO33J99C,english,male,NA,dogs,NA,1,1566832610147,1,NA,This is a ,1.00,These are both,NA,great dane,warmup2
432,pug,Mon Aug 26 2019 11:16:50 GMT-0400 (Eastern Daylight Time),NA,10,warmup/great-dane.jpg,pug,This is a ,I had no problems,2,3DW3BNF1GH6VXKY3LH9BWPRDJCA8V6,dogs,sarah,3WETL7AQWUWVLDBBTB14PULRF49538,great dane,yes,Please label the pictures below.,NA,NA,37,NA,"I have none, thanks!",warmup/pug.jpg,dogs,graduated_college,A1NR3COO33J99C,english,male,NA,dogs,NA,1,1566832610147,2,NA,This is a ,1.00,These are both,NA,great dane,warmup2
432,swan,Mon Aug 26 2019 11:16:50 GMT-0400 (Eastern Daylight Time),NA,10,warmup/canary.jpg,swan,This is a ,I had no problems,2,3DW3BNF1GH6VXKY3LH9BWPRDJCA8V6,birds,sarah,3WETL7AQWUWVLDBBTB14PULRF49538,canary,yes,Please label the pictures below.,NA,NA,37,NA,"I have none, thanks!",warmup/swan.jpg,birds,graduated_college,A1NR3COO33J99C,english,male,NA,birds,NA,2,1566832610147,1,NA,This is a ,1.00,These are both,NA,wren,warmup2
432,swan,Mon Aug 26 2019 11:16:50 GMT-0400 (Eastern Daylight Time),NA,10,warmup/canary.jpg,swan,This is a ,I had no problems,2,3DW3BNF1GH6VXKY3LH9BWPRDJCA8V6,birds,sarah,3WETL7AQWUWVLDBBTB14PULRF49538,canary,yes,Please label the pictures below.,NA,NA,37,NA,"I have none, thanks!",warmup/swan.jpg,birds,graduated_college,A1NR3COO33J99C,english,male,NA,birds,NA,2,1566832610147,2,NA,This is a ,1.00,These are both,NA,canary,warmup2
432,daisy,Mon Aug 26 2019 11:16:50 GMT-0400 (Eastern Daylight Time),NA,10,warmup/sunflower.png,dandelion,This is a ,I had no problems,2,3DW3BNF1GH6VXKY3LH9BWPRDJCA8V6,flowers,sarah,3WETL7AQWUWVLDBBTB14PULRF49538,sunflower,yes,Please label the pictures below.,NA,NA,37,NA,"I have none, thanks!",warmup/dandelion.jpg,flower,graduated_college,A1NR3COO33J99C,english,male,NA,flowers,NA,3,1566832610147,1,NA,This is a ,1.00,These are both,NA,sunflower,warmup2
432,dandelion,Mon Aug 26 2019 11:16:50 GMT-0400 (Eastern Daylight Time),NA,10,warmup/sunflower.png,dandelion,This is a ,I had no problems,2,3DW3BNF1GH6VXKY3LH9BWPRDJCA8V6,flowers,sarah,3WETL7AQWUWVLDBBTB14PULRF49538,sunflower,yes,Please label the pictures below.,NA,NA,37,NA,"I have none, thanks!",warmup/dandelion.jpg,flowers,graduated_college,A1NR3COO33J99C,english,male,NA,flowers,NA,3,1566832610147,2,NA,This is a ,1.00,These are both,NA,sunflower,warmup2
432,NA,Mon Aug 26 2019 11:16:50 GMT-0400 (Eastern Daylight Time),images/flower-parade2.png,10,NA,NA,That's a big ,I had no problems,2,3DW3BNF1GH6VXKY3LH9BWPRDJCA8V6,flowers,sarah,3WETL7AQWUWVLDBBTB14PULRF49538,NA,yes,This one is also in the collection.,prenominal,You say to your friend:,37,sunflower,"I have none, thanks!",NA,NA,graduated_college,A1NR3COO33J99C,english,male,,NA,You see a collection of plants.,1,1566832610147,NA,images/sunflower.png,NA,1.00,,big,NA,main2
432,NA,Mon Aug 26 2019 11:16:50 GMT-0400 (Eastern Daylight Time),images/bird-parade3.png,10,NA,NA,That's a small ,I had no problems,2,3DW3BNF1GH6VXKY3LH9BWPRDJCA8V6,birds,sarah,3WETL7AQWUWVLDBBTB14PULRF49538,NA,yes,This one is also in the parade.,prenominal,You say to your friend:,37,canary,"I have none, thanks!",NA,NA,graduated_college,A1NR3COO33J99C,english,male,,NA,You see a parade of animals.,2,1566832610147,NA,images/canary.png,NA,1.00,,small,NA,main2
432,NA,Mon Aug 26 2019 11:16:50 GMT-0400 (Eastern Daylight Time),images/dog-parade2.png,10,NA,NA,That's a big ,I had no problems,2,3DW3BNF1GH6VXKY3LH9BWPRDJCA8V6,dogs,sarah,3WETL7AQWUWVLDBBTB14PULRF49538,NA,yes,This one is also in the parade.,prenominal,You say to your friend:,37,great dane,"I have none, thanks!",NA,NA,graduated_college,A1NR3COO33J99C,english,male,,NA,You see a parade of animals.,3,1566832610147,NA,images/great-dane.png,NA,1.00,,big,NA,main2
431,kingfish,Mon Aug 26 2019 11:20:53 GMT-0400 (Eastern Daylight Time),NA,10,warmup/goldfish.png,swordfish,This is a ,no problems,2,3TKXBROM5TYFVVAMDE7J6QAXRL8JI4,fish,sarah,3V26SBZTBE2UDK2TL63TIZX1VYKZZA,goldfish,yes,Please label the pictures below.,NA,NA,67,NA,,warmup/swordfish.jpg,fish,some_college,AOOLS8280CL0Z,english,female,NA,fish,NA,1,1566832853898,1,NA,This is a ,1.00,These are both,NA,goldfish,warmup1
431,swordfish,Mon Aug 26 2019 11:20:53 GMT-0400 (Eastern Daylight Time),NA,10,warmup/goldfish.png,swordfish,This is a ,no problems,2,3TKXBROM5TYFVVAMDE7J6QAXRL8JI4,fish,sarah,3V26SBZTBE2UDK2TL63TIZX1VYKZZA,goldfish,yes,Please label the pictures below.,NA,NA,67,NA,,warmup/swordfish.jpg,fish,some_college,AOOLS8280CL0Z,english,female,NA,fish,NA,1,1566832853898,2,NA,This is a ,1.00,These are both,NA,goldfish,warmup1
431,swan,Mon Aug 26 2019 11:20:53 GMT-0400 (Eastern Daylight Time),NA,10,warmup/canary.jpg,swan,This is a ,no problems,2,3TKXBROM5TYFVVAMDE7J6QAXRL8JI4,birds,sarah,3V26SBZTBE2UDK2TL63TIZX1VYKZZA,canary,yes,Please label the pictures below.,NA,NA,67,NA,,warmup/swan.jpg,birds,some_college,AOOLS8280CL0Z,english,female,NA,birds,NA,2,1566832853898,1,NA,This is a ,1.00,These are both,NA,canary,warmup1
431,redwood,Mon Aug 26 2019 11:20:53 GMT-0400 (Eastern Daylight Time),NA,10,warmup/bonsai.jpg,redwood|sequoia,This is a ,no problems,2,3TKXBROM5TYFVVAMDE7J6QAXRL8JI4,trees,sarah,3V26SBZTBE2UDK2TL63TIZX1VYKZZA,bonsai,yes,Please label the pictures below.,NA,NA,67,NA,,warmup/sequoia.jpg,trees,some_college,AOOLS8280CL0Z,english,female,NA,trees,NA,3,1566832853898,1,NA,This is a ,1.00,These are both,NA,japanese,warmup1
431,redwood,Mon Aug 26 2019 11:20:53 GMT-0400 (Eastern Daylight Time),NA,10,warmup/bonsai.jpg,redwood|sequoia,This is a ,no problems,2,3TKXBROM5TYFVVAMDE7J6QAXRL8JI4,trees,sarah,3V26SBZTBE2UDK2TL63TIZX1VYKZZA,bonsai,yes,Please label the pictures below.,NA,NA,67,NA,,warmup/sequoia.jpg,trees,some_college,AOOLS8280CL0Z,english,female,NA,trees,NA,3,1566832853898,2,NA,This is a ,1.00,These are both,NA,bonsai,warmup1
431,NA,Mon Aug 26 2019 11:20:53 GMT-0400 (Eastern Daylight Time),images/fish-parade.png,10,NA,NA,That's a big ,no problems,2,3TKXBROM5TYFVVAMDE7J6QAXRL8JI4,fish,sarah,3V26SBZTBE2UDK2TL63TIZX1VYKZZA,NA,yes,This one is also in the parade.,prenominal,You say to your friend:,67,fish,,NA,NA,some_college,AOOLS8280CL0Z,english,female,,NA,You see a parade of animals.,1,1566832853898,NA,images/swordfish.png,NA,1.00,,big,NA,main1
431,NA,Mon Aug 26 2019 11:20:53 GMT-0400 (Eastern Daylight Time),images/bird-parade3.png,10,NA,NA,That's a big ,no problems,2,3TKXBROM5TYFVVAMDE7J6QAXRL8JI4,birds,sarah,3V26SBZTBE2UDK2TL63TIZX1VYKZZA,NA,yes,This one is also in the parade.,prenominal,You say to your friend:,67,swan,,NA,NA,some_college,AOOLS8280CL0Z,english,female,,NA,You see a parade of animals.,2,1566832853898,NA,images/swan.png,NA,1.00,,big,NA,main1
431,NA,Mon Aug 26 2019 11:20:53 GMT-0400 (Eastern Daylight Time),images/tree-parade.png,10,NA,NA,That's a big ,no problems,2,3TKXBROM5TYFVVAMDE7J6QAXRL8JI4,trees,sarah,3V26SBZTBE2UDK2TL63TIZX1VYKZZA,NA,yes,This one is also in the landscape.,prenominal,You say to your friend:,67,tree,,NA,NA,some_college,AOOLS8280CL0Z,english,female,,NA,You see the following items in a landscape.,3,1566832853898,NA,images/sequoia.png,NA,1.00,,big,NA,main1
431,chihuahua,Mon Aug 26 2019 11:20:53 GMT-0400 (Eastern Daylight Time),NA,10,warmup/doberman.png,chihuahua,This is a ,no problems,2,3TKXBROM5TYFVVAMDE7J6QAXRL8JI4,dogs,sarah,3V26SBZTBE2UDK2TL63TIZX1VYKZZA,doberman,yes,Please label the pictures below.,NA,NA,67,NA,,warmup/chihuahua.jpg,dogs,some_college,AOOLS8280CL0Z,english,female,NA,dogs,NA,1,1566832853898,1,NA,This is a ,1.00,These are both,NA,great dane,warmup2
431,chihuahua,Mon Aug 26 2019 11:20:53 GMT-0400 (Eastern Daylight Time),NA,10,warmup/doberman.png,chihuahua,This is a ,no problems,2,3TKXBROM5TYFVVAMDE7J6QAXRL8JI4,dogs,sarah,3V26SBZTBE2UDK2TL63TIZX1VYKZZA,doberman,yes,Please label the pictures below.,NA,NA,67,NA,,warmup/chihuahua.jpg,dogs,some_college,AOOLS8280CL0Z,english,female,NA,dogs,NA,1,1566832853898,2,NA,This is a ,1.00,These are both,NA,doberman,warmup2
431,dandelion,Mon Aug 26 2019 11:20:53 GMT-0400 (Eastern Daylight Time),NA,10,warmup/sunflower.png,dandelion,This is a ,no problems,2,3TKXBROM5TYFVVAMDE7J6QAXRL8JI4,flowers,sarah,3V26SBZTBE2UDK2TL63TIZX1VYKZZA,sunflower,yes,Please label the pictures below.,NA,NA,67,NA,,warmup/dandelion.jpg,flowers,some_college,AOOLS8280CL0Z,english,female,NA,flowers,NA,2,1566832853898,1,NA,This is a ,1.00,These are both,NA,sunflower,warmup2
431,bass,Mon Aug 26 2019 11:20:53 GMT-0400 (Eastern Daylight Time),NA,10,warmup/clownfish.jpg,tuna,This is a ,no problems,2,3TKXBROM5TYFVVAMDE7J6QAXRL8JI4,fish,sarah,3V26SBZTBE2UDK2TL63TIZX1VYKZZA,clownfish,yes,Please label the pictures below.,NA,NA,67,NA,,warmup/tuna.jpg,fish,some_college,AOOLS8280CL0Z,english,female,NA,fish,NA,3,1566832853898,1,NA,This is a ,1.00,These are both,NA,lionfish,warmup2
431,tuna,Mon Aug 26 2019 11:20:53 GMT-0400 (Eastern Daylight Time),NA,10,warmup/clownfish.jpg,tuna,This is a ,no problems,2,3TKXBROM5TYFVVAMDE7J6QAXRL8JI4,fish,sarah,3V26SBZTBE2UDK2TL63TIZX1VYKZZA,clownfish,yes,Please label the pictures below.,NA,NA,67,NA,,warmup/tuna.jpg,fish,some_college,AOOLS8280CL0Z,english,female,NA,fish,NA,3,1566832853898,2,NA,This is a ,1.00,These are both,NA,clownfish,warmup2
431,NA,Mon Aug 26 2019 11:20:53 GMT-0400 (Eastern Daylight Time),images/fish-parade2.png,10,NA,NA,That's a small ,no problems,2,3TKXBROM5TYFVVAMDE7J6QAXRL8JI4,fish,sarah,3V26SBZTBE2UDK2TL63TIZX1VYKZZA,NA,yes,This one is also in the parade.,prenominal,You say to your friend:,67,fish,,NA,NA,some_college,AOOLS8280CL0Z,english,female,,NA,You see a parade of animals.,1,1566832853898,NA,images/clownfish.png,NA,1.00,,small,NA,main2
431,NA,Mon Aug 26 2019 11:20:53 GMT-0400 (Eastern Daylight Time),images/flower-parade2.png,10,NA,NA,That's a small ,no problems,2,3TKXBROM5TYFVVAMDE7J6QAXRL8JI4,flowers,sarah,3V26SBZTBE2UDK2TL63TIZX1VYKZZA,NA,yes,This one is also in the collection.,prenominal,You say to your friend:,67,plant,,NA,NA,some_college,AOOLS8280CL0Z,english,female,,NA,You see a collection of plants.,2,1566832853898,NA,images/dandelion.png,NA,1.00,,small,NA,main2
431,NA,Mon Aug 26 2019 11:20:53 GMT-0400 (Eastern Daylight Time),images/dog-parade.png,10,NA,NA,That's a small ,no problems,2,3TKXBROM5TYFVVAMDE7J6QAXRL8JI4,dogs,sarah,3V26SBZTBE2UDK2TL63TIZX1VYKZZA,NA,yes,This one is also in the parade.,prenominal,You say to your friend:,67,dog,,NA,NA,some_college,AOOLS8280CL0Z,english,female,,NA,You see a parade of animals.,3,1566832853898,NA,images/chihuahua.png,NA,1.00,,small,NA,main2
428,swordfish,Mon Aug 26 2019 10:17:40 GMT-0500 (Central Daylight Time),NA,10,warmup/goldfish.png,swordfish,This is a ,,2,3PKJ68EHDNKFZ0Z27WPY6E9IR8TJHB,fish,sarah,3R08VXYT7DJ7ZFRIROR3SBAK43G7WD,goldfish,yes,Please label the pictures below.,NA,NA,33,NA,,warmup/swordfish.jpg,fish,some_college,A1LR0VQIHQUJAM,english,female,NA,fish,NA,1,1566832660768,1,NA,This is a ,0.85,These are both,NA,goldfish,warmup1
428,chihuahua,Mon Aug 26 2019 10:17:40 GMT-0500 (Central Daylight Time),NA,10,warmup/doberman.png,chihuahua,This is a ,,2,3PKJ68EHDNKFZ0Z27WPY6E9IR8TJHB,dogs,sarah,3R08VXYT7DJ7ZFRIROR3SBAK43G7WD,doberman,yes,Please label the pictures below.,NA,NA,33,NA,,warmup/chihuahua.jpg,dogs,some_college,A1LR0VQIHQUJAM,english,female,NA,dogs,NA,2,1566832660768,1,NA,This is a ,0.85,These are both,NA,doberman,warmup1
428,tuna,Mon Aug 26 2019 10:17:40 GMT-0500 (Central Daylight Time),NA,10,warmup/clownfish.jpg,tuna,This is a ,,2,3PKJ68EHDNKFZ0Z27WPY6E9IR8TJHB,fish,sarah,3R08VXYT7DJ7ZFRIROR3SBAK43G7WD,clownfish,yes,Please label the pictures below.,NA,NA,33,NA,,warmup/tuna.jpg,fish,some_college,A1LR0VQIHQUJAM,english,female,NA,fish,NA,3,1566832660768,1,NA,This is a ,0.85,These are both,NA,clownfish,warmup1
428,NA,Mon Aug 26 2019 10:17:40 GMT-0500 (Central Daylight Time),images/fish-parade.png,10,NA,NA,That's a big ,,2,3PKJ68EHDNKFZ0Z27WPY6E9IR8TJHB,fish,sarah,3R08VXYT7DJ7ZFRIROR3SBAK43G7WD,NA,yes,This one is also in the parade.,prenominal,You say to your friend:,33,fish,,NA,NA,some_college,A1LR0VQIHQUJAM,english,female,,NA,You see a parade of animals.,1,1566832660768,NA,images/swordfish.png,NA,0.85,,big,NA,main1
428,NA,Mon Aug 26 2019 10:17:40 GMT-0500 (Central Daylight Time),images/dog-parade.png,10,NA,NA,That's a small ,,2,3PKJ68EHDNKFZ0Z27WPY6E9IR8TJHB,dogs,sarah,3R08VXYT7DJ7ZFRIROR3SBAK43G7WD,NA,yes,This one is also in the parade.,prenominal,You say to your friend:,33,chihuahua,,NA,NA,some_college,A1LR0VQIHQUJAM,english,female,,NA,You see a parade of animals.,2,1566832660768,NA,images/chihuahua.png,NA,0.85,,small,NA,main1
428,NA,Mon Aug 26 2019 10:17:40 GMT-0500 (Central Daylight Time),images/fish-parade2.png,10,NA,NA,That's a big ,,2,3PKJ68EHDNKFZ0Z27WPY6E9IR8TJHB,fish,sarah,3R08VXYT7DJ7ZFRIROR3SBAK43G7WD,NA,yes,This one is also in the parade.,prenominal,You say to your friend:,33,fish,,NA,NA,some_college,A1LR0VQIHQUJAM,english,female,,NA,You see a parade of animals.,3,1566832660768,NA,images/tuna.png,NA,0.85,,big,NA,main1
428,goose,Mon Aug 26 2019 10:17:40 GMT-0500 (Central Daylight Time),NA,10,warmup/sparrow.jpg,goose,This is a ,,2,3PKJ68EHDNKFZ0Z27WPY6E9IR8TJHB,birds,sarah,3R08VXYT7DJ7ZFRIROR3SBAK43G7WD,sparrow,yes,Please label the pictures below.,NA,NA,33,NA,,warmup/goose.png,bird,some_college,A1LR0VQIHQUJAM,english,female,NA,birds,NA,1,1566832660768,1,NA,This is a ,0.85,These are both,NA,sparrow,warmup2
428,goose,Mon Aug 26 2019 10:17:40 GMT-0500 (Central Daylight Time),NA,10,warmup/sparrow.jpg,goose,This is a ,,2,3PKJ68EHDNKFZ0Z27WPY6E9IR8TJHB,birds,sarah,3R08VXYT7DJ7ZFRIROR3SBAK43G7WD,sparrow,yes,Please label the pictures below.,NA,NA,33,NA,,warmup/goose.png,birds,some_college,A1LR0VQIHQUJAM,english,female,NA,birds,NA,1,1566832660768,2,NA,This is a ,0.85,These are both,NA,sparrow,warmup2
428,daisy,Mon Aug 26 2019 10:17:40 GMT-0500 (Central Daylight Time),NA,10,warmup/peony.png,daisy,This is a ,,2,3PKJ68EHDNKFZ0Z27WPY6E9IR8TJHB,flowers,sarah,3R08VXYT7DJ7ZFRIROR3SBAK43G7WD,peony,yes,Please label the pictures below.,NA,NA,33,NA,,warmup/daisy.png,flower,some_college,A1LR0VQIHQUJAM,english,female,NA,flowers,NA,2,1566832660768,1,NA,This is a ,0.85,These are both,NA,rose,warmup2
428,daisy,Mon Aug 26 2019 10:17:40 GMT-0500 (Central Daylight Time),NA,10,warmup/peony.png,daisy,This is a ,,2,3PKJ68EHDNKFZ0Z27WPY6E9IR8TJHB,flowers,sarah,3R08VXYT7DJ7ZFRIROR3SBAK43G7WD,peony,yes,Please label the pictures below.,NA,NA,33,NA,,warmup/daisy.png,flowers,some_college,A1LR0VQIHQUJAM,english,female,NA,flowers,NA,2,1566832660768,2,NA,This is a ,0.85,These are both,NA,peony,warmup2
428,dandelion,Mon Aug 26 2019 10:17:40 GMT-0500 (Central Daylight Time),NA,10,warmup/sunflower.png,dandelion,This is a ,,2,3PKJ68EHDNKFZ0Z27WPY6E9IR8TJHB,flowers,sarah,3R08VXYT7DJ7ZFRIROR3SBAK43G7WD,sunflower,yes,Please label the pictures below.,NA,NA,33,NA,,warmup/dandelion.jpg,flowers,some_college,A1LR0VQIHQUJAM,english,female,NA,flowers,NA,3,1566832660768,1,NA,This is a ,0.85,These are both,NA,sunflower,warmup2
428,NA,Mon Aug 26 2019 10:17:40 GMT-0500 (Central Daylight Time),images/bird-parade.png,10,NA,NA,That's a small ,,2,3PKJ68EHDNKFZ0Z27WPY6E9IR8TJHB,birds,sarah,3R08VXYT7DJ7ZFRIROR3SBAK43G7WD,NA,yes,This one is also in the parade.,prenominal,You say to your friend:,33,bird,,NA,NA,some_college,A1LR0VQIHQUJAM,english,female,,NA,You see a parade of animals.,1,1566832660768,NA,images/sparrow.png,NA,0.85,,small,NA,main2
428,NA,Mon Aug 26 2019 10:17:40 GMT-0500 (Central Daylight Time),images/flower-parade.png,10,NA,NA,That's a big ,,2,3PKJ68EHDNKFZ0Z27WPY6E9IR8TJHB,flowers,sarah,3R08VXYT7DJ7ZFRIROR3SBAK43G7WD,NA,yes,This one is also in the collection.,prenominal,You say to your friend:,33,flower,,NA,NA,some_college,A1LR0VQIHQUJAM,english,female,,NA,You see a collection of plants.,2,1566832660768,NA,images/peony.png,NA,0.85,,big,NA,main2
428,NA,Mon Aug 26 2019 10:17:40 GMT-0500 (Central Daylight Time),images/flower-parade2.png,10,NA,NA,That's a small ,,2,3PKJ68EHDNKFZ0Z27WPY6E9IR8TJHB,flowers,sarah,3R08VXYT7DJ7ZFRIROR3SBAK43G7WD,NA,yes,This one is also in the collection.,prenominal,You say to your friend:,33,weed,,NA,NA,some_college,A1LR0VQIHQUJAM,english,female,,NA,You see a collection of plants.,3,1566832660768,NA,images/dandelion.png,NA,0.85,,small,NA,main2
427,dandelion,Mon Aug 26 2019 10:12:05 GMT-0500 (Central Daylight Time),NA,10,warmup/sunflower.png,dandelion,This is a ,No,1,3CMV9YRYP3PHLWISYH4WY62P8P2LJK,flowers,Jennifer,3XIQGXAUMDWMOFW81TNPUUORD557XP,sunflower,yes,Please label the pictures below.,NA,NA,38,NA,None,warmup/dandelion.jpg,flowers,some_college,A1U5BE8XJRXKW3,English,male,NA,flowers,NA,1,1566832325044,1,NA,This is a ,1.50,These are both,NA,sunflower,warmup1
427,goose,Mon Aug 26 2019 10:12:05 GMT-0500 (Central Daylight Time),NA,10,warmup/sparrow.jpg,goose,This is a ,No,1,3CMV9YRYP3PHLWISYH4WY62P8P2LJK,birds,Jennifer,3XIQGXAUMDWMOFW81TNPUUORD557XP,sparrow,yes,Please label the pictures below.,NA,NA,38,NA,None,warmup/goose.png,birds,some_college,A1U5BE8XJRXKW3,English,male,NA,birds,NA,2,1566832325044,1,NA,This is a ,1.50,These are both,NA,sparrow,warmup1
427,marlin,Mon Aug 26 2019 10:12:05 GMT-0500 (Central Daylight Time),NA,10,warmup/goldfish.png,swordfish,This is a ,No,1,3CMV9YRYP3PHLWISYH4WY62P8P2LJK,fish,Jennifer,3XIQGXAUMDWMOFW81TNPUUORD557XP,goldfish,yes,Please label the pictures below.,NA,NA,38,NA,None,warmup/swordfish.jpg,fish,some_college,A1U5BE8XJRXKW3,English,male,NA,fish,NA,3,1566832325044,1,NA,This is a ,1.50,These are both,NA,goldfish,warmup1
427,swordfish,Mon Aug 26 2019 10:12:05 GMT-0500 (Central Daylight Time),NA,10,warmup/goldfish.png,swordfish,This is a ,No,1,3CMV9YRYP3PHLWISYH4WY62P8P2LJK,fish,Jennifer,3XIQGXAUMDWMOFW81TNPUUORD557XP,goldfish,yes,Please label the pictures below.,NA,NA,38,NA,None,warmup/swordfish.jpg,fish,some_college,A1U5BE8XJRXKW3,English,male,NA,fish,NA,3,1566832325044,2,NA,This is a ,1.50,These are both,NA,goldfish,warmup1
427,NA,Mon Aug 26 2019 10:12:05 GMT-0500 (Central Daylight Time),images/bird-parade.png,10,NA,NA,That's a small ,No,1,3CMV9YRYP3PHLWISYH4WY62P8P2LJK,birds,Jennifer,3XIQGXAUMDWMOFW81TNPUUORD557XP,NA,yes,This one is also in the parade.,prenominal,You say to your friend:,38,bird,None,NA,NA,some_college,A1U5BE8XJRXKW3,English,male,,NA,You see a parade of animals.,1,1566832325044,NA,images/sparrow.png,NA,1.50,,small,NA,main1
427,NA,Mon Aug 26 2019 10:12:05 GMT-0500 (Central Daylight Time),images/fish-parade.png,10,NA,NA,That's a small ,No,1,3CMV9YRYP3PHLWISYH4WY62P8P2LJK,fish,Jennifer,3XIQGXAUMDWMOFW81TNPUUORD557XP,NA,yes,This one is also in the parade.,prenominal,You say to your friend:,38,fish,None,NA,NA,some_college,A1U5BE8XJRXKW3,English,male,,NA,You see a parade of animals.,2,1566832325044,NA,images/goldfish.png,NA,1.50,,small,NA,main1
427,NA,Mon Aug 26 2019 10:12:05 GMT-0500 (Central Daylight Time),images/flower-parade2.png,10,NA,NA,That's a big ,No,1,3CMV9YRYP3PHLWISYH4WY62P8P2LJK,flowers,Jennifer,3XIQGXAUMDWMOFW81TNPUUORD557XP,NA,yes,This one is also in the collection.,prenominal,You say to your friend:,38,flower,None,NA,NA,some_college,A1U5BE8XJRXKW3,English,male,,NA,You see a collection of plants.,3,1566832325044,NA,images/sunflower.png,NA,1.50,,big,NA,main1
427,hummingbird,Mon Aug 26 2019 10:12:05 GMT-0500 (Central Daylight Time),NA,10,warmup/eagle.jpg,hummingbird,This is a ,No,1,3CMV9YRYP3PHLWISYH4WY62P8P2LJK,birds,Jennifer,3XIQGXAUMDWMOFW81TNPUUORD557XP,eagle,yes,Please label the pictures below.,NA,NA,38,NA,None,warmup/colibri.jpg,birds,some_college,A1U5BE8XJRXKW3,English,male,NA,birds,NA,1,1566832325044,1,NA,This is an ,1.50,These are both,NA,eagle,warmup2
427,chihuahua,Mon Aug 26 2019 10:12:05 GMT-0500 (Central Daylight Time),NA,10,warmup/doberman.png,chihuahua,This is a ,No,1,3CMV9YRYP3PHLWISYH4WY62P8P2LJK,dogs,Jennifer,3XIQGXAUMDWMOFW81TNPUUORD557XP,doberman,yes,Please label the pictures below.,NA,NA,38,NA,None,warmup/chihuahua.jpg,dogs,some_college,A1U5BE8XJRXKW3,English,male,NA,dogs,NA,2,1566832325044,1,NA,This is a ,1.50,These are both,NA,doberman,warmup2
427,swan,Mon Aug 26 2019 10:12:05 GMT-0500 (Central Daylight Time),NA,10,warmup/canary.jpg,swan,This is a ,No,1,3CMV9YRYP3PHLWISYH4WY62P8P2LJK,birds,Jennifer,3XIQGXAUMDWMOFW81TNPUUORD557XP,canary,yes,Please label the pictures below.,NA,NA,38,NA,None,warmup/swan.jpg,birds,some_college,A1U5BE8XJRXKW3,English,male,NA,birds,NA,3,1566832325044,1,NA,This is a ,1.50,These are both,NA,canary,warmup2
427,NA,Mon Aug 26 2019 10:12:05 GMT-0500 (Central Daylight Time),images/bird-parade2.png,10,NA,NA,That's a big ,No,1,3CMV9YRYP3PHLWISYH4WY62P8P2LJK,birds,Jennifer,3XIQGXAUMDWMOFW81TNPUUORD557XP,NA,yes,This one is also in the parade.,prenominal,You say to your friend:,38,bird,None,NA,NA,some_college,A1U5BE8XJRXKW3,English,male,,NA,You see a parade of animals.,1,1566832325044,NA,images/eagle.png,NA,1.50,,big,NA,main2
427,NA,Mon Aug 26 2019 10:12:05 GMT-0500 (Central Daylight Time),images/dog-parade.png,10,NA,NA,That's a big ,No,1,3CMV9YRYP3PHLWISYH4WY62P8P2LJK,dogs,Jennifer,3XIQGXAUMDWMOFW81TNPUUORD557XP,NA,yes,This one is also in the parade.,prenominal,You say to your friend:,38,dog,None,NA,NA,some_college,A1U5BE8XJRXKW3,English,male,,NA,You see a parade of animals.,2,1566832325044,NA,images/doberman.png,NA,1.50,,big,NA,main2
427,NA,Mon Aug 26 2019 10:12:05 GMT-0500 (Central Daylight Time),images/bird-parade3.png,10,NA,NA,That's a small ,No,1,3CMV9YRYP3PHLWISYH4WY62P8P2LJK,birds,Jennifer,3XIQGXAUMDWMOFW81TNPUUORD557XP,NA,yes,This one is also in the parade.,prenominal,You say to your friend:,38,bird,None,NA,NA,some_college,A1U5BE8XJRXKW3,English,male,,NA,You see a parade of animals.,3,1566832325044,NA,images/canary.png,NA,1.50,,small,NA,main2
423,puppy,Mon Aug 26 2019 10:04:48 GMT-0500 (Central Daylight Time),NA,10,warmup/great-dane.jpg,pug,This is a ,good,2,3PKJ68EHDNKFZ0Z27WPY6E9IR8TJHB,dogs,linda,3G0WWMR1UW8RI3NJVM9MWJEOGHMQNL,great dane,yes,Please label the pictures below.,NA,NA,30,NA,good survey,warmup/pug.jpg,animals,graduated_college,A35J1SKAW9FTJX,english,male,NA,dogs,NA,1,1566831888118,1,NA,This is a ,0.03,These are both,NA,dog,warmup1
423,puppy,Mon Aug 26 2019 10:04:48 GMT-0500 (Central Daylight Time),NA,10,warmup/great-dane.jpg,pug,This is a ,good,2,3PKJ68EHDNKFZ0Z27WPY6E9IR8TJHB,dogs,linda,3G0WWMR1UW8RI3NJVM9MWJEOGHMQNL,great dane,yes,Please label the pictures below.,NA,NA,30,NA,good survey,warmup/pug.jpg,dogs,graduated_college,A35J1SKAW9FTJX,english,male,NA,dogs,NA,1,1566831888118,2,NA,This is a ,0.03,These are both,NA,dog,warmup1
423,puppy,Mon Aug 26 2019 10:04:48 GMT-0500 (Central Daylight Time),NA,10,warmup/great-dane.jpg,pug,This is a ,good,2,3PKJ68EHDNKFZ0Z27WPY6E9IR8TJHB,dogs,linda,3G0WWMR1UW8RI3NJVM9MWJEOGHMQNL,great dane,yes,Please label the pictures below.,NA,NA,30,NA,good survey,warmup/pug.jpg,dogs,graduated_college,A35J1SKAW9FTJX,english,male,NA,dogs,NA,1,1566831888118,3,NA,This is a ,0.03,These are both,NA,dog,warmup1
423,puppy,Mon Aug 26 2019 10:04:48 GMT-0500 (Central Daylight Time),NA,10,warmup/great-dane.jpg,pug,This is a ,good,2,3PKJ68EHDNKFZ0Z27WPY6E9IR8TJHB,dogs,linda,3G0WWMR1UW8RI3NJVM9MWJEOGHMQNL,great dane,yes,Please label the pictures below.,NA,NA,30,NA,good survey,warmup/pug.jpg,dogs,graduated_college,A35J1SKAW9FTJX,english,male,NA,dogs,NA,1,1566831888118,4,NA,This is a ,0.03,These are both,NA,dog,warmup1
423,puppy,Mon Aug 26 2019 10:04:48 GMT-0500 (Central Daylight Time),NA,10,warmup/great-dane.jpg,pug,This is a ,good,2,3PKJ68EHDNKFZ0Z27WPY6E9IR8TJHB,dogs,linda,3G0WWMR1UW8RI3NJVM9MWJEOGHMQNL,great dane,yes,Please label the pictures below.,NA,NA,30,NA,good survey,warmup/pug.jpg,dogs,graduated_college,A35J1SKAW9FTJX,english,male,NA,dogs,NA,1,1566831888118,5,NA,This is a ,0.03,These are both,NA,dog,warmup1
423,puppy,Mon Aug 26 2019 10:04:48 GMT-0500 (Central Daylight Time),NA,10,warmup/great-dane.jpg,pug,This is a ,good,2,3PKJ68EHDNKFZ0Z27WPY6E9IR8TJHB,dogs,linda,3G0WWMR1UW8RI3NJVM9MWJEOGHMQNL,great dane,yes,Please label the pictures below.,NA,NA,30,NA,good survey,warmup/pug.jpg,dogs,graduated_college,A35J1SKAW9FTJX,english,male,NA,dogs,NA,1,1566831888118,6,NA,This is a ,0.03,These are both,NA,dog,warmup1
423,puppy,Mon Aug 26 2019 10:04:48 GMT-0500 (Central Daylight Time),NA,10,warmup/great-dane.jpg,pug,This is a ,good,2,3PKJ68EHDNKFZ0Z27WPY6E9IR8TJHB,dogs,linda,3G0WWMR1UW8RI3NJVM9MWJEOGHMQNL,great dane,yes,Please label the pictures below.,NA,NA,30,NA,good survey,warmup/pug.jpg,dogs,graduated_college,A35J1SKAW9FTJX,english,male,NA,dogs,NA,1,1566831888118,7,NA,This is a ,0.03,These are both,NA,dog,warmup1
423,puppy,Mon Aug 26 2019 10:04:48 GMT-0500 (Central Daylight Time),NA,10,warmup/great-dane.jpg,pug,This is a ,good,2,3PKJ68EHDNKFZ0Z27WPY6E9IR8TJHB,dogs,linda,3G0WWMR1UW8RI3NJVM9MWJEOGHMQNL,great dane,yes,Please label the pictures below.,NA,NA,30,NA,good survey,warmup/pug.jpg,dogs,graduated_college,A35J1SKAW9FTJX,english,male,NA,dogs,NA,1,1566831888118,8,NA,This is a ,0.03,These are both,NA,dog,warmup1
423,pug,Mon Aug 26 2019 10:04:48 GMT-0500 (Central Daylight Time),NA,10,warmup/great-dane.jpg,pug,This is a ,good,2,3PKJ68EHDNKFZ0Z27WPY6E9IR8TJHB,dogs,linda,3G0WWMR1UW8RI3NJVM9MWJEOGHMQNL,great dane,yes,Please label the pictures below.,NA,NA,30,NA,good survey,warmup/pug.jpg,dogs,graduated_college,A35J1SKAW9FTJX,english,male,NA,dogs,NA,1,1566831888118,9,NA,This is a ,0.03,These are both,NA,great dane,warmup1
423,duck,Mon Aug 26 2019 10:04:48 GMT-0500 (Central Daylight Time),NA,10,warmup/canary.jpg,swan,This is a ,good,2,3PKJ68EHDNKFZ0Z27WPY6E9IR8TJHB,birds,linda,3G0WWMR1UW8RI3NJVM9MWJEOGHMQNL,canary,yes,Please label the pictures below.,NA,NA,30,NA,good survey,warmup/swan.jpg,birds,graduated_college,A35J1SKAW9FTJX,english,male,NA,birds,NA,2,1566831888118,1,NA,This is a ,0.03,These are both,NA,sparrow,warmup1
423,swan,Mon Aug 26 2019 10:04:48 GMT-0500 (Central Daylight Time),NA,10,warmup/canary.jpg,swan,This is a ,good,2,3PKJ68EHDNKFZ0Z27WPY6E9IR8TJHB,birds,linda,3G0WWMR1UW8RI3NJVM9MWJEOGHMQNL,canary,yes,Please label the pictures below.,NA,NA,30,NA,good survey,warmup/swan.jpg,birds,graduated_college,A35J1SKAW9FTJX,english,male,NA,birds,NA,2,1566831888118,2,NA,This is a ,0.03,These are both,NA,canary,warmup1
423,bird,Mon Aug 26 2019 10:04:48 GMT-0500 (Central Daylight Time),NA,10,warmup/eagle.jpg,hummingbird,This is a ,good,2,3PKJ68EHDNKFZ0Z27WPY6E9IR8TJHB,birds,linda,3G0WWMR1UW8RI3NJVM9MWJEOGHMQNL,eagle,yes,Please label the pictures below.,NA,NA,30,NA,good survey,warmup/colibri.jpg,bird,graduated_college,A35J1SKAW9FTJX,english,male,NA,birds,NA,3,1566831888118,1,NA,This is an ,0.03,These are both,NA,eagle,warmup1
423,hummingbird,Mon Aug 26 2019 10:04:48 GMT-0500 (Central Daylight Time),NA,10,warmup/eagle.jpg,hummingbird,This is a ,good,2,3PKJ68EHDNKFZ0Z27WPY6E9IR8TJHB,birds,linda,3G0WWMR1UW8RI3NJVM9MWJEOGHMQNL,eagle,yes,Please label the pictures below.,NA,NA,30,NA,good survey,warmup/colibri.jpg,birds,graduated_college,A35J1SKAW9FTJX,english,male,NA,birds,NA,3,1566831888118,2,NA,This is an ,0.03,These are both,NA,eagle,warmup1
423,NA,Mon Aug 26 2019 10:04:48 GMT-0500 (Central Daylight Time),images/dog-parade2.png,10,NA,NA,That's a big ,good,2,3PKJ68EHDNKFZ0Z27WPY6E9IR8TJHB,dogs,linda,3G0WWMR1UW8RI3NJVM9MWJEOGHMQNL,NA,yes,This one is also in the parade.,prenominal,You say to your friend:,30,great dane,good survey,NA,NA,graduated_college,A35J1SKAW9FTJX,english,male,,NA,You see a parade of animals.,1,1566831888118,NA,images/great-dane.png,NA,0.03,,big,NA,main1
423,NA,Mon Aug 26 2019 10:04:48 GMT-0500 (Central Daylight Time),images/bird-parade3.png,10,NA,NA,That's a small ,good,2,3PKJ68EHDNKFZ0Z27WPY6E9IR8TJHB,birds,linda,3G0WWMR1UW8RI3NJVM9MWJEOGHMQNL,NA,yes,This one is also in the parade.,prenominal,You say to your friend:,30,sparrow,good survey,NA,NA,graduated_college,A35J1SKAW9FTJX,english,male,,NA,You see a parade of animals.,2,1566831888118,NA,images/canary.png,NA,0.03,,small,NA,main1
423,NA,Mon Aug 26 2019 10:04:48 GMT-0500 (Central Daylight Time),images/bird-parade2.png,10,NA,NA,That's a big ,good,2,3PKJ68EHDNKFZ0Z27WPY6E9IR8TJHB,birds,linda,3G0WWMR1UW8RI3NJVM9MWJEOGHMQNL,NA,yes,This one is also in the parade.,prenominal,You say to your friend:,30,eagle,good survey,NA,NA,graduated_college,A35J1SKAW9FTJX,english,male,,NA,You see a parade of animals.,3,1566831888118,NA,images/eagle.png,NA,0.03,,big,NA,main1
423,tree,Mon Aug 26 2019 10:04:48 GMT-0500 (Central Daylight Time),NA,10,warmup/bonsai.jpg,redwood|sequoia,This is a ,good,2,3PKJ68EHDNKFZ0Z27WPY6E9IR8TJHB,trees,linda,3G0WWMR1UW8RI3NJVM9MWJEOGHMQNL,bonsai,yes,Please label the pictures below.,NA,NA,30,NA,good survey,warmup/sequoia.jpg,plants,graduated_college,A35J1SKAW9FTJX,english,male,NA,trees,NA,1,1566831888118,1,NA,This is a ,0.03,These are both,NA,plant,warmup2
423,redwood,Mon Aug 26 2019 10:04:48 GMT-0500 (Central Daylight Time),NA,10,warmup/bonsai.jpg,redwood|sequoia,This is a ,good,2,3PKJ68EHDNKFZ0Z27WPY6E9IR8TJHB,trees,linda,3G0WWMR1UW8RI3NJVM9MWJEOGHMQNL,bonsai,yes,Please label the pictures below.,NA,NA,30,NA,good survey,warmup/sequoia.jpg,trees,graduated_college,A35J1SKAW9FTJX,english,male,NA,trees,NA,1,1566831888118,2,NA,This is a ,0.03,These are both,NA,bonsai,warmup2
423,sunflower,Mon Aug 26 2019 10:04:48 GMT-0500 (Central Daylight Time),NA,10,warmup/peony.png,daisy,This is a ,good,2,3PKJ68EHDNKFZ0Z27WPY6E9IR8TJHB,flowers,linda,3G0WWMR1UW8RI3NJVM9MWJEOGHMQNL,peony,yes,Please label the pictures below.,NA,NA,30,NA,good survey,warmup/daisy.png,flowers,graduated_college,A35J1SKAW9FTJX,english,male,NA,flowers,NA,2,1566831888118,1,NA,This is a ,0.03,These are both,NA,rose,warmup2
423,daisy,Mon Aug 26 2019 10:04:48 GMT-0500 (Central Daylight Time),NA,10,warmup/peony.png,daisy,This is a ,good,2,3PKJ68EHDNKFZ0Z27WPY6E9IR8TJHB,flowers,linda,3G0WWMR1UW8RI3NJVM9MWJEOGHMQNL,peony,yes,Please label the pictures below.,NA,NA,30,NA,good survey,warmup/daisy.png,flowers,graduated_college,A35J1SKAW9FTJX,english,male,NA,flowers,NA,2,1566831888118,2,NA,This is a ,0.03,These are both,NA,peony,warmup2
423,yellow flower,Mon Aug 26 2019 10:04:48 GMT-0500 (Central Daylight Time),NA,10,warmup/sunflower.png,dandelion,This is a ,good,2,3PKJ68EHDNKFZ0Z27WPY6E9IR8TJHB,flowers,linda,3G0WWMR1UW8RI3NJVM9MWJEOGHMQNL,sunflower,yes,Please label the pictures below.,NA,NA,30,NA,good survey,warmup/dandelion.jpg,flowers,graduated_college,A35J1SKAW9FTJX,english,male,NA,flowers,NA,3,1566831888118,1,NA,This is a ,0.03,These are both,NA,sunflower,warmup2
423,danedelion,Mon Aug 26 2019 10:04:48 GMT-0500 (Central Daylight Time),NA,10,warmup/sunflower.png,dandelion,This is a ,good,2,3PKJ68EHDNKFZ0Z27WPY6E9IR8TJHB,flowers,linda,3G0WWMR1UW8RI3NJVM9MWJEOGHMQNL,sunflower,yes,Please label the pictures below.,NA,NA,30,NA,good survey,warmup/dandelion.jpg,flowers,graduated_college,A35J1SKAW9FTJX,english,male,NA,flowers,NA,3,1566831888118,2,NA,This is a ,0.03,These are both,NA,sunflower,warmup2
423,dandelion,Mon Aug 26 2019 10:04:48 GMT-0500 (Central Daylight Time),NA,10,warmup/sunflower.png,dandelion,This is a ,good,2,3PKJ68EHDNKFZ0Z27WPY6E9IR8TJHB,flowers,linda,3G0WWMR1UW8RI3NJVM9MWJEOGHMQNL,sunflower,yes,Please label the pictures below.,NA,NA,30,NA,good survey,warmup/dandelion.jpg,flowers,graduated_college,A35J1SKAW9FTJX,english,male,NA,flowers,NA,3,1566831888118,3,NA,This is a ,0.03,These are both,NA,sunflower,warmup2
423,NA,Mon Aug 26 2019 10:04:48 GMT-0500 (Central Daylight Time),images/flower-parade.png,10,NA,NA,That's a small ,good,2,3PKJ68EHDNKFZ0Z27WPY6E9IR8TJHB,flowers,linda,3G0WWMR1UW8RI3NJVM9MWJEOGHMQNL,NA,yes,This one is also in the collection.,prenominal,You say to your friend:,30,dandelion,good survey,NA,NA,graduated_college,A35J1SKAW9FTJX,english,male,,NA,You see a collection of plants.,1,1566831888118,NA,images/daisy.png,NA,0.03,,small,NA,main2
423,NA,Mon Aug 26 2019 10:04:48 GMT-0500 (Central Daylight Time),images/flower-parade2.png,10,NA,NA,That's a big ,good,2,3PKJ68EHDNKFZ0Z27WPY6E9IR8TJHB,flowers,linda,3G0WWMR1UW8RI3NJVM9MWJEOGHMQNL,NA,yes,This one is also in the collection.,prenominal,You say to your friend:,30,sunflower,good survey,NA,NA,graduated_college,A35J1SKAW9FTJX,english,male,,NA,You see a collection of plants.,2,1566831888118,NA,images/sunflower.png,NA,0.03,,big,NA,main2
423,NA,Mon Aug 26 2019 10:04:48 GMT-0500 (Central Daylight Time),images/tree-parade.png,10,NA,NA,That's a small ,good,2,3PKJ68EHDNKFZ0Z27WPY6E9IR8TJHB,trees,linda,3G0WWMR1UW8RI3NJVM9MWJEOGHMQNL,NA,yes,This one is also in the landscape.,prenominal,You say to your friend:,30,redwood,good survey,NA,NA,graduated_college,A35J1SKAW9FTJX,english,male,,NA,You see the following items in a landscape.,3,1566831888118,NA,images/bonsai.png,NA,0.03,,small,NA,main2
422,goose,Mon Aug 26 2019 16:08:24 GMT+0100 (British Summer Time),NA,10,warmup/sparrow.jpg,goose,This is a ,Nope.,1,3CMV9YRYP3PHLWISYH4WY62P8P2LJK,birds,barbara,32SVAV9L3GXSRJNSO7SLX51D7IA3AC,sparrow,yes,Please label the pictures below.,NA,NA,28,NA,Nope.,warmup/goose.png,birds,graduated_college,A1KFCUN4NISJ1O,English,male,NA,birds,NA,1,1566832104191,1,NA,This is a ,1,These are both,NA,finch,warmup1
422,goose,Mon Aug 26 2019 16:08:24 GMT+0100 (British Summer Time),NA,10,warmup/sparrow.jpg,goose,This is a ,Nope.,1,3CMV9YRYP3PHLWISYH4WY62P8P2LJK,birds,barbara,32SVAV9L3GXSRJNSO7SLX51D7IA3AC,sparrow,yes,Please label the pictures below.,NA,NA,28,NA,Nope.,warmup/goose.png,birds,graduated_college,A1KFCUN4NISJ1O,English,male,NA,birds,NA,1,1566832104191,2,NA,This is a ,1,These are both,NA,sparrow,warmup1
422,redwood,Mon Aug 26 2019 16:08:24 GMT+0100 (British Summer Time),NA,10,warmup/bonsai.jpg,redwood|sequoia,This is a ,Nope.,1,3CMV9YRYP3PHLWISYH4WY62P8P2LJK,trees,barbara,32SVAV9L3GXSRJNSO7SLX51D7IA3AC,bonsai,yes,Please label the pictures below.,NA,NA,28,NA,Nope.,warmup/sequoia.jpg,trees,graduated_college,A1KFCUN4NISJ1O,English,male,NA,trees,NA,2,1566832104191,1,NA,This is a ,1,These are both,NA,bonzai,warmup1
422,redwood,Mon Aug 26 2019 16:08:24 GMT+0100 (British Summer Time),NA,10,warmup/bonsai.jpg,redwood|sequoia,This is a ,Nope.,1,3CMV9YRYP3PHLWISYH4WY62P8P2LJK,trees,barbara,32SVAV9L3GXSRJNSO7SLX51D7IA3AC,bonsai,yes,Please label the pictures below.,NA,NA,28,NA,Nope.,warmup/sequoia.jpg,trees,graduated_college,A1KFCUN4NISJ1O,English,male,NA,trees,NA,2,1566832104191,2,NA,This is a ,1,These are both,NA,bonsai,warmup1
422,dandelion,Mon Aug 26 2019 16:08:24 GMT+0100 (British Summer Time),NA,10,warmup/sunflower.png,dandelion,This is a ,Nope.,1,3CMV9YRYP3PHLWISYH4WY62P8P2LJK,flowers,barbara,32SVAV9L3GXSRJNSO7SLX51D7IA3AC,sunflower,yes,Please label the pictures below.,NA,NA,28,NA,Nope.,warmup/dandelion.jpg,flowers,graduated_college,A1KFCUN4NISJ1O,English,male,NA,flowers,NA,3,1566832104191,1,NA,This is a ,1,These are both,NA,sunflower,warmup1
422,NA,Mon Aug 26 2019 16:08:24 GMT+0100 (British Summer Time),images/flower-parade2.png,10,NA,NA,That's a big ,Nope.,1,3CMV9YRYP3PHLWISYH4WY62P8P2LJK,flowers,barbara,32SVAV9L3GXSRJNSO7SLX51D7IA3AC,NA,yes,This one is also in the collection.,prenominal,You say to your friend:,28,sunflower,Nope.,NA,NA,graduated_college,A1KFCUN4NISJ1O,English,male,,NA,You see a collection of plants.,1,1566832104191,NA,images/sunflower.png,NA,1,,big,NA,main1
422,NA,Mon Aug 26 2019 16:08:24 GMT+0100 (British Summer Time),images/bird-parade.png,10,NA,NA,That's a big ,Nope.,1,3CMV9YRYP3PHLWISYH4WY62P8P2LJK,birds,barbara,32SVAV9L3GXSRJNSO7SLX51D7IA3AC,NA,yes,This one is also in the parade.,prenominal,You say to your friend:,28,goose,Nope.,NA,NA,graduated_college,A1KFCUN4NISJ1O,English,male,,NA,You see a parade of animals.,2,1566832104191,NA,images/goose.png,NA,1,,big,NA,main1
422,NA,Mon Aug 26 2019 16:08:24 GMT+0100 (British Summer Time),images/tree-parade.png,10,NA,NA,That's a small ,Nope.,1,3CMV9YRYP3PHLWISYH4WY62P8P2LJK,trees,barbara,32SVAV9L3GXSRJNSO7SLX51D7IA3AC,NA,yes,This one is also in the landscape.,prenominal,You say to your friend:,28,bonsai tree,Nope.,NA,NA,graduated_college,A1KFCUN4NISJ1O,English,male,,NA,You see the following items in a landscape.,3,1566832104191,NA,images/bonsai.png,NA,1,,small,NA,main1
422,lilly,Mon Aug 26 2019 16:08:24 GMT+0100 (British Summer Time),NA,10,warmup/peony.png,daisy,This is a ,Nope.,1,3CMV9YRYP3PHLWISYH4WY62P8P2LJK,flowers,barbara,32SVAV9L3GXSRJNSO7SLX51D7IA3AC,peony,yes,Please label the pictures below.,NA,NA,28,NA,Nope.,warmup/daisy.png,flowers,graduated_college,A1KFCUN4NISJ1O,English,male,NA,flowers,NA,1,1566832104191,1,NA,This is a ,1,These are both,NA,flower,warmup2
422,daisy,Mon Aug 26 2019 16:08:24 GMT+0100 (British Summer Time),NA,10,warmup/peony.png,daisy,This is a ,Nope.,1,3CMV9YRYP3PHLWISYH4WY62P8P2LJK,flowers,barbara,32SVAV9L3GXSRJNSO7SLX51D7IA3AC,peony,yes,Please label the pictures below.,NA,NA,28,NA,Nope.,warmup/daisy.png,flowers,graduated_college,A1KFCUN4NISJ1O,English,male,NA,flowers,NA,1,1566832104191,2,NA,This is a ,1,These are both,NA,peony,warmup2
422,bass,Mon Aug 26 2019 16:08:24 GMT+0100 (British Summer Time),NA,10,warmup/clownfish.jpg,tuna,This is a ,Nope.,1,3CMV9YRYP3PHLWISYH4WY62P8P2LJK,fish,barbara,32SVAV9L3GXSRJNSO7SLX51D7IA3AC,clownfish,yes,Please label the pictures below.,NA,NA,28,NA,Nope.,warmup/tuna.jpg,fish,graduated_college,A1KFCUN4NISJ1O,English,male,NA,fish,NA,2,1566832104191,1,NA,This is a ,1,These are both,NA,clownfish,warmup2
422,tuna,Mon Aug 26 2019 16:08:24 GMT+0100 (British Summer Time),NA,10,warmup/clownfish.jpg,tuna,This is a ,Nope.,1,3CMV9YRYP3PHLWISYH4WY62P8P2LJK,fish,barbara,32SVAV9L3GXSRJNSO7SLX51D7IA3AC,clownfish,yes,Please label the pictures below.,NA,NA,28,NA,Nope.,warmup/tuna.jpg,fish,graduated_college,A1KFCUN4NISJ1O,English,male,NA,fish,NA,2,1566832104191,2,NA,This is a ,1,These are both,NA,clownfish,warmup2
422,chihuahua,Mon Aug 26 2019 16:08:24 GMT+0100 (British Summer Time),NA,10,warmup/doberman.png,chihuahua,This is a ,Nope.,1,3CMV9YRYP3PHLWISYH4WY62P8P2LJK,dogs,barbara,32SVAV9L3GXSRJNSO7SLX51D7IA3AC,doberman,yes,Please label the pictures below.,NA,NA,28,NA,Nope.,warmup/chihuahua.jpg,dogs,graduated_college,A1KFCUN4NISJ1O,English,male,NA,dogs,NA,3,1566832104191,1,NA,This is a ,1,These are both,NA,doberman,warmup2
422,NA,Mon Aug 26 2019 16:08:24 GMT+0100 (British Summer Time),images/fish-parade2.png,10,NA,NA,That's a small ,Nope.,1,3CMV9YRYP3PHLWISYH4WY62P8P2LJK,fish,barbara,32SVAV9L3GXSRJNSO7SLX51D7IA3AC,NA,yes,This one is also in the parade.,prenominal,You say to your friend:,28,clownfish,Nope.,NA,NA,graduated_college,A1KFCUN4NISJ1O,English,male,,NA,You see a parade of animals.,1,1566832104191,NA,images/clownfish.png,NA,1,,small,NA,main2
422,NA,Mon Aug 26 2019 16:08:24 GMT+0100 (British Summer Time),images/flower-parade.png,10,NA,NA,That's a big ,Nope.,1,3CMV9YRYP3PHLWISYH4WY62P8P2LJK,flowers,barbara,32SVAV9L3GXSRJNSO7SLX51D7IA3AC,NA,yes,This one is also in the collection.,prenominal,You say to your friend:,28,peony,Nope.,NA,NA,graduated_college,A1KFCUN4NISJ1O,English,male,,NA,You see a collection of plants.,2,1566832104191,NA,images/peony.png,NA,1,,big,NA,main2
422,NA,Mon Aug 26 2019 16:08:24 GMT+0100 (British Summer Time),images/dog-parade.png,10,NA,NA,That's a small ,Nope.,1,3CMV9YRYP3PHLWISYH4WY62P8P2LJK,dogs,barbara,32SVAV9L3GXSRJNSO7SLX51D7IA3AC,NA,yes,This one is also in the parade.,prenominal,You say to your friend:,28,chihuahua,Nope.,NA,NA,graduated_college,A1KFCUN4NISJ1O,English,male,,NA,You see a parade of animals.,3,1566832104191,NA,images/chihuahua.png,NA,1,,small,NA,main2
418,hummingbird,Mon Aug 26 2019 08:05:46 GMT-0700 (Pacific Daylight Time),NA,10,warmup/eagle.jpg,hummingbird,This is a ,no,1,3CMV9YRYP3PHLWISYH4WY62P8P2LJK,birds,margaret,31N2WW6R9SENNA40ZNEDB6C44YN3FP,eagle,yes,Please label the pictures below.,NA,NA,38,NA,,warmup/colibri.jpg,birds,some_college,A2YGOORS5N9RW8,english,male,NA,birds,NA,1,1566831946290,1,NA,This is an ,1,These are both,NA,eagle,warmup1
418,redwood,Mon Aug 26 2019 08:05:46 GMT-0700 (Pacific Daylight Time),NA,10,warmup/bonsai.jpg,redwood|sequoia,This is a ,no,1,3CMV9YRYP3PHLWISYH4WY62P8P2LJK,trees,margaret,31N2WW6R9SENNA40ZNEDB6C44YN3FP,bonsai,yes,Please label the pictures below.,NA,NA,38,NA,,warmup/sequoia.jpg,trees,some_college,A2YGOORS5N9RW8,english,male,NA,trees,NA,2,1566831946290,1,NA,This is a ,1,These are both,NA,bonsai,warmup1
418,fish,Mon Aug 26 2019 08:05:46 GMT-0700 (Pacific Daylight Time),NA,10,warmup/clownfish.jpg,tuna,This is a ,no,1,3CMV9YRYP3PHLWISYH4WY62P8P2LJK,fish,margaret,31N2WW6R9SENNA40ZNEDB6C44YN3FP,clownfish,yes,Please label the pictures below.,NA,NA,38,NA,,warmup/tuna.jpg,fish,some_college,A2YGOORS5N9RW8,english,male,NA,fish,NA,3,1566831946290,1,NA,This is a ,1,These are both,NA,fish,warmup1
418,tuna,Mon Aug 26 2019 08:05:46 GMT-0700 (Pacific Daylight Time),NA,10,warmup/clownfish.jpg,tuna,This is a ,no,1,3CMV9YRYP3PHLWISYH4WY62P8P2LJK,fish,margaret,31N2WW6R9SENNA40ZNEDB6C44YN3FP,clownfish,yes,Please label the pictures below.,NA,NA,38,NA,,warmup/tuna.jpg,fish,some_college,A2YGOORS5N9RW8,english,male,NA,fish,NA,3,1566831946290,2,NA,This is a ,1,These are both,NA,clownfish,warmup1
418,NA,Mon Aug 26 2019 08:05:46 GMT-0700 (Pacific Daylight Time),images/bird-parade2.png,10,NA,NA,That's a big ,no,1,3CMV9YRYP3PHLWISYH4WY62P8P2LJK,birds,margaret,31N2WW6R9SENNA40ZNEDB6C44YN3FP,NA,yes,This one is also in the parade.,prenominal,You say to your friend:,38,bird,,NA,NA,some_college,A2YGOORS5N9RW8,english,male,,NA,You see a parade of animals.,1,1566831946290,NA,images/eagle.png,NA,1,,big,NA,main1
418,NA,Mon Aug 26 2019 08:05:46 GMT-0700 (Pacific Daylight Time),images/tree-parade.png,10,NA,NA,That's a small ,no,1,3CMV9YRYP3PHLWISYH4WY62P8P2LJK,trees,margaret,31N2WW6R9SENNA40ZNEDB6C44YN3FP,NA,yes,This one is also in the landscape.,prenominal,You say to your friend:,38,tree,,NA,NA,some_college,A2YGOORS5N9RW8,english,male,,NA,You see the following items in a landscape.,2,1566831946290,NA,images/bonsai.png,NA,1,,small,NA,main1
418,NA,Mon Aug 26 2019 08:05:46 GMT-0700 (Pacific Daylight Time),images/fish-parade2.png,10,NA,NA,That's a big ,no,1,3CMV9YRYP3PHLWISYH4WY62P8P2LJK,fish,margaret,31N2WW6R9SENNA40ZNEDB6C44YN3FP,NA,yes,This one is also in the parade.,prenominal,You say to your friend:,38,fish,,NA,NA,some_college,A2YGOORS5N9RW8,english,male,,NA,You see a parade of animals.,3,1566831946290,NA,images/tuna.png,NA,1,,big,NA,main1
418,swan,Mon Aug 26 2019 08:05:46 GMT-0700 (Pacific Daylight Time),NA,10,warmup/canary.jpg,swan,This is a ,no,1,3CMV9YRYP3PHLWISYH4WY62P8P2LJK,birds,margaret,31N2WW6R9SENNA40ZNEDB6C44YN3FP,canary,yes,Please label the pictures below.,NA,NA,38,NA,,warmup/swan.jpg,birds,some_college,A2YGOORS5N9RW8,english,male,NA,birds,NA,1,1566831946290,1,NA,This is a ,1,These are both,NA,canary,warmup2
418,chihuahua,Mon Aug 26 2019 08:05:46 GMT-0700 (Pacific Daylight Time),NA,10,warmup/doberman.png,chihuahua,This is a ,no,1,3CMV9YRYP3PHLWISYH4WY62P8P2LJK,dogs,margaret,31N2WW6R9SENNA40ZNEDB6C44YN3FP,doberman,yes,Please label the pictures below.,NA,NA,38,NA,,warmup/chihuahua.jpg,dogs,some_college,A2YGOORS5N9RW8,english,male,NA,dogs,NA,2,1566831946290,1,NA,This is a ,1,These are both,NA,doberman,warmup2
418,flower,Mon Aug 26 2019 08:05:46 GMT-0700 (Pacific Daylight Time),NA,10,warmup/peony.png,daisy,This is a ,no,1,3CMV9YRYP3PHLWISYH4WY62P8P2LJK,flowers,margaret,31N2WW6R9SENNA40ZNEDB6C44YN3FP,peony,yes,Please label the pictures below.,NA,NA,38,NA,,warmup/daisy.png,flowers,some_college,A2YGOORS5N9RW8,english,male,NA,flowers,NA,3,1566831946290,1,NA,This is a ,1,These are both,NA,flower,warmup2
418,daisy,Mon Aug 26 2019 08:05:46 GMT-0700 (Pacific Daylight Time),NA,10,warmup/peony.png,daisy,This is a ,no,1,3CMV9YRYP3PHLWISYH4WY62P8P2LJK,flowers,margaret,31N2WW6R9SENNA40ZNEDB6C44YN3FP,peony,yes,Please label the pictures below.,NA,NA,38,NA,,warmup/daisy.png,flowers,some_college,A2YGOORS5N9RW8,english,male,NA,flowers,NA,3,1566831946290,2,NA,This is a ,1,These are both,NA,peony,warmup2
418,NA,Mon Aug 26 2019 08:05:46 GMT-0700 (Pacific Daylight Time),images/bird-parade3.png,10,NA,NA,That's a big ,no,1,3CMV9YRYP3PHLWISYH4WY62P8P2LJK,birds,margaret,31N2WW6R9SENNA40ZNEDB6C44YN3FP,NA,yes,This one is also in the parade.,prenominal,You say to your friend:,38,bird,,NA,NA,some_college,A2YGOORS5N9RW8,english,male,,NA,You see a parade of animals.,1,1566831946290,NA,images/swan.png,NA,1,,big,NA,main2
418,NA,Mon Aug 26 2019 08:05:46 GMT-0700 (Pacific Daylight Time),images/flower-parade.png,10,NA,NA,That's a small ,no,1,3CMV9YRYP3PHLWISYH4WY62P8P2LJK,flowers,margaret,31N2WW6R9SENNA40ZNEDB6C44YN3FP,NA,yes,This one is also in the collection.,prenominal,You say to your friend:,38,flower,,NA,NA,some_college,A2YGOORS5N9RW8,english,male,,NA,You see a collection of plants.,2,1566831946290,NA,images/daisy.png,NA,1,,small,NA,main2
418,NA,Mon Aug 26 2019 08:05:46 GMT-0700 (Pacific Daylight Time),images/dog-parade.png,10,NA,NA,That's a small ,no,1,3CMV9YRYP3PHLWISYH4WY62P8P2LJK,dogs,margaret,31N2WW6R9SENNA40ZNEDB6C44YN3FP,NA,yes,This one is also in the parade.,prenominal,You say to your friend:,38,dog,,NA,NA,some_college,A2YGOORS5N9RW8,english,male,,NA,You see a parade of animals.,3,1566831946290,NA,images/chihuahua.png,NA,1,,small,NA,main2
417,tree,Mon Aug 26 2019 11:05:35 GMT-0400 (Eastern Daylight Time),NA,10,warmup/bonsai.jpg,redwood|sequoia,This is a ,no,2,3DW3BNF1GH6VXKY3LH9BWPRDJCA8V6,trees,margaret,32N49TQG3H6C3SPB8HYRG0TWY22VA0,bonsai,,Please label the pictures below.,NA,NA,,NA,,warmup/sequoia.jpg,trees,,A2ZIATVCA2NKPF,english,,NA,trees,NA,1,1566831935329,1,NA,This is a ,2.00,These are both,NA,bonzai,warmup1
417,tree,Mon Aug 26 2019 11:05:35 GMT-0400 (Eastern Daylight Time),NA,10,warmup/bonsai.jpg,redwood|sequoia,This is a ,no,2,3DW3BNF1GH6VXKY3LH9BWPRDJCA8V6,trees,margaret,32N49TQG3H6C3SPB8HYRG0TWY22VA0,bonsai,,Please label the pictures below.,NA,NA,,NA,,warmup/sequoia.jpg,trees,,A2ZIATVCA2NKPF,english,,NA,trees,NA,1,1566831935329,2,NA,This is a ,2.00,These are both,NA,bonsai,warmup1
417,tree,Mon Aug 26 2019 11:05:35 GMT-0400 (Eastern Daylight Time),NA,10,warmup/bonsai.jpg,redwood|sequoia,This is a ,no,2,3DW3BNF1GH6VXKY3LH9BWPRDJCA8V6,trees,margaret,32N49TQG3H6C3SPB8HYRG0TWY22VA0,bonsai,,Please label the pictures below.,NA,NA,,NA,,warmup/sequoia.jpg,trees,,A2ZIATVCA2NKPF,english,,NA,trees,NA,1,1566831935329,3,NA,This is a ,2.00,These are both,NA,bonsai,warmup1
417,redwood,Mon Aug 26 2019 11:05:35 GMT-0400 (Eastern Daylight Time),NA,10,warmup/bonsai.jpg,redwood|sequoia,This is a ,no,2,3DW3BNF1GH6VXKY3LH9BWPRDJCA8V6,trees,margaret,32N49TQG3H6C3SPB8HYRG0TWY22VA0,bonsai,,Please label the pictures below.,NA,NA,,NA,,warmup/sequoia.jpg,trees,,A2ZIATVCA2NKPF,english,,NA,trees,NA,1,1566831935329,4,NA,This is a ,2.00,These are both,NA,bonsai,warmup1
417,hummingbird,Mon Aug 26 2019 11:05:35 GMT-0400 (Eastern Daylight Time),NA,10,warmup/eagle.jpg,hummingbird,This is a ,no,2,3DW3BNF1GH6VXKY3LH9BWPRDJCA8V6,birds,margaret,32N49TQG3H6C3SPB8HYRG0TWY22VA0,eagle,,Please label the pictures below.,NA,NA,,NA,,warmup/colibri.jpg,birds,,A2ZIATVCA2NKPF,english,,NA,birds,NA,2,1566831935329,1,NA,This is an ,2.00,These are both,NA,eagle,warmup1
417,swan,Mon Aug 26 2019 11:05:35 GMT-0400 (Eastern Daylight Time),NA,10,warmup/canary.jpg,swan,This is a ,no,2,3DW3BNF1GH6VXKY3LH9BWPRDJCA8V6,birds,margaret,32N49TQG3H6C3SPB8HYRG0TWY22VA0,canary,,Please label the pictures below.,NA,NA,,NA,,warmup/swan.jpg,birds,,A2ZIATVCA2NKPF,english,,NA,birds,NA,3,1566831935329,1,NA,This is a ,2.00,These are both,NA,canary,warmup1
417,NA,Mon Aug 26 2019 11:05:35 GMT-0400 (Eastern Daylight Time),images/tree-parade.png,10,NA,NA,That's a big ,no,2,3DW3BNF1GH6VXKY3LH9BWPRDJCA8V6,trees,margaret,32N49TQG3H6C3SPB8HYRG0TWY22VA0,NA,,This one is also in the landscape.,prenominal,You say to your friend:,,redwood,,NA,NA,,A2ZIATVCA2NKPF,english,,,NA,You see the following items in a landscape.,1,1566831935329,NA,images/sequoia.png,NA,2.00,,big,NA,main1
417,NA,Mon Aug 26 2019 11:05:35 GMT-0400 (Eastern Daylight Time),images/bird-parade3.png,10,NA,NA,That's a small ,no,2,3DW3BNF1GH6VXKY3LH9BWPRDJCA8V6,birds,margaret,32N49TQG3H6C3SPB8HYRG0TWY22VA0,NA,,This one is also in the parade.,prenominal,You say to your friend:,,canary,,NA,NA,,A2ZIATVCA2NKPF,english,,,NA,You see a parade of animals.,2,1566831935329,NA,images/canary.png,NA,2.00,,small,NA,main1
417,NA,Mon Aug 26 2019 11:05:35 GMT-0400 (Eastern Daylight Time),images/bird-parade2.png,10,NA,NA,That's a small ,no,2,3DW3BNF1GH6VXKY3LH9BWPRDJCA8V6,birds,margaret,32N49TQG3H6C3SPB8HYRG0TWY22VA0,NA,,This one is also in the parade.,prenominal,You say to your friend:,,hummingbird,,NA,NA,,A2ZIATVCA2NKPF,english,,,NA,You see a parade of animals.,3,1566831935329,NA,images/hummingbird.png,NA,2.00,,small,NA,main1
417,tuna,Mon Aug 26 2019 11:05:35 GMT-0400 (Eastern Daylight Time),NA,10,warmup/clownfish.jpg,tuna,This is a ,no,2,3DW3BNF1GH6VXKY3LH9BWPRDJCA8V6,fish,margaret,32N49TQG3H6C3SPB8HYRG0TWY22VA0,clownfish,,Please label the pictures below.,NA,NA,,NA,,warmup/tuna.jpg,fish,,A2ZIATVCA2NKPF,english,,NA,fish,NA,1,1566831935329,1,NA,This is a ,2.00,These are both,NA,clownfish,warmup2
417,swordfish,Mon Aug 26 2019 11:05:35 GMT-0400 (Eastern Daylight Time),NA,10,warmup/goldfish.png,swordfish,This is a ,no,2,3DW3BNF1GH6VXKY3LH9BWPRDJCA8V6,fish,margaret,32N49TQG3H6C3SPB8HYRG0TWY22VA0,goldfish,,Please label the pictures below.,NA,NA,,NA,,warmup/swordfish.jpg,fish,,A2ZIATVCA2NKPF,english,,NA,fish,NA,2,1566831935329,1,NA,This is a ,2.00,These are both,NA,goldfish,warmup2
417,goose,Mon Aug 26 2019 11:05:35 GMT-0400 (Eastern Daylight Time),NA,10,warmup/sparrow.jpg,goose,This is a ,no,2,3DW3BNF1GH6VXKY3LH9BWPRDJCA8V6,birds,margaret,32N49TQG3H6C3SPB8HYRG0TWY22VA0,sparrow,,Please label the pictures below.,NA,NA,,NA,,warmup/goose.png,birds,,A2ZIATVCA2NKPF,english,,NA,birds,NA,3,1566831935329,1,NA,This is a ,2.00,These are both,NA,sparrow,warmup2
417,NA,Mon Aug 26 2019 11:05:35 GMT-0400 (Eastern Daylight Time),images/bird-parade.png,10,NA,NA,That's a big ,no,2,3DW3BNF1GH6VXKY3LH9BWPRDJCA8V6,birds,margaret,32N49TQG3H6C3SPB8HYRG0TWY22VA0,NA,,This one is also in the parade.,prenominal,You say to your friend:,,goose,,NA,NA,,A2ZIATVCA2NKPF,english,,,NA,You see a parade of animals.,1,1566831935329,NA,images/goose.png,NA,2.00,,big,NA,main2
417,NA,Mon Aug 26 2019 11:05:35 GMT-0400 (Eastern Daylight Time),images/fish-parade2.png,10,NA,NA,That's a big ,no,2,3DW3BNF1GH6VXKY3LH9BWPRDJCA8V6,fish,margaret,32N49TQG3H6C3SPB8HYRG0TWY22VA0,NA,,This one is also in the parade.,prenominal,You say to your friend:,,tuna,,NA,NA,,A2ZIATVCA2NKPF,english,,,NA,You see a parade of animals.,2,1566831935329,NA,images/tuna.png,NA,2.00,,big,NA,main2
417,NA,Mon Aug 26 2019 11:05:35 GMT-0400 (Eastern Daylight Time),images/fish-parade.png,10,NA,NA,That's a small ,no,2,3DW3BNF1GH6VXKY3LH9BWPRDJCA8V6,fish,margaret,32N49TQG3H6C3SPB8HYRG0TWY22VA0,NA,,This one is also in the parade.,prenominal,You say to your friend:,,goldfish,,NA,NA,,A2ZIATVCA2NKPF,english,,,NA,You see a parade of animals.,3,1566831935329,NA,images/goldfish.png,NA,2.00,,small,NA,main2
416,hummingbird,Mon Aug 26 2019 08:01:54 GMT-0700 (Pacific Daylight Time),NA,10,warmup/eagle.jpg,hummingbird,This is a ,no,1,3PKJ68EHDNKFZ0Z27WPY6E9IR8TJHB,birds,patricia,3EO896NRAXJ8RTOQXSBP8H8UR4GTJY,eagle,yes,Please label the pictures below.,NA,NA,35,NA,,warmup/colibri.jpg,birds,graduated_college,A3V57BKH58EUIY,english,female,NA,birds,NA,1,1566831714211,1,NA,This is an ,100,These are both,NA,eagle,warmup1
416,tuna,Mon Aug 26 2019 08:01:54 GMT-0700 (Pacific Daylight Time),NA,10,warmup/clownfish.jpg,tuna,This is a ,no,1,3PKJ68EHDNKFZ0Z27WPY6E9IR8TJHB,fish,patricia,3EO896NRAXJ8RTOQXSBP8H8UR4GTJY,clownfish,yes,Please label the pictures below.,NA,NA,35,NA,,warmup/tuna.jpg,fish,graduated_college,A3V57BKH58EUIY,english,female,NA,fish,NA,2,1566831714211,1,NA,This is a ,100,These are both,NA,clown fish,warmup1
416,tuna,Mon Aug 26 2019 08:01:54 GMT-0700 (Pacific Daylight Time),NA,10,warmup/clownfish.jpg,tuna,This is a ,no,1,3PKJ68EHDNKFZ0Z27WPY6E9IR8TJHB,fish,patricia,3EO896NRAXJ8RTOQXSBP8H8UR4GTJY,clownfish,yes,Please label the pictures below.,NA,NA,35,NA,,warmup/tuna.jpg,fish,graduated_college,A3V57BKH58EUIY,english,female,NA,fish,NA,2,1566831714211,2,NA,This is a ,100,These are both,NA,clown fish,warmup1
416,tuna,Mon Aug 26 2019 08:01:54 GMT-0700 (Pacific Daylight Time),NA,10,warmup/clownfish.jpg,tuna,This is a ,no,1,3PKJ68EHDNKFZ0Z27WPY6E9IR8TJHB,fish,patricia,3EO896NRAXJ8RTOQXSBP8H8UR4GTJY,clownfish,yes,Please label the pictures below.,NA,NA,35,NA,,warmup/tuna.jpg,fish,graduated_college,A3V57BKH58EUIY,english,female,NA,fish,NA,2,1566831714211,3,NA,This is a ,100,These are both,NA,clownfish,warmup1
416,swordfish,Mon Aug 26 2019 08:01:54 GMT-0700 (Pacific Daylight Time),NA,10,warmup/goldfish.png,swordfish,This is a ,no,1,3PKJ68EHDNKFZ0Z27WPY6E9IR8TJHB,fish,patricia,3EO896NRAXJ8RTOQXSBP8H8UR4GTJY,goldfish,yes,Please label the pictures below.,NA,NA,35,NA,,warmup/swordfish.jpg,fish,graduated_college,A3V57BKH58EUIY,english,female,NA,fish,NA,3,1566831714211,1,NA,This is a ,100,These are both,NA,goldfish,warmup1
416,NA,Mon Aug 26 2019 08:01:54 GMT-0700 (Pacific Daylight Time),images/fish-parade.png,10,NA,NA,That's a big ,no,1,3PKJ68EHDNKFZ0Z27WPY6E9IR8TJHB,fish,patricia,3EO896NRAXJ8RTOQXSBP8H8UR4GTJY,NA,yes,This one is also in the parade.,prenominal,You say to your friend:,35,swordfish,,NA,NA,graduated_college,A3V57BKH58EUIY,english,female,,NA,You see a parade of animals.,1,1566831714211,NA,images/swordfish.png,NA,100,,big,NA,main1
416,NA,Mon Aug 26 2019 08:01:54 GMT-0700 (Pacific Daylight Time),images/fish-parade2.png,10,NA,NA,That's a small ,no,1,3PKJ68EHDNKFZ0Z27WPY6E9IR8TJHB,fish,patricia,3EO896NRAXJ8RTOQXSBP8H8UR4GTJY,NA,yes,This one is also in the parade.,prenominal,You say to your friend:,35,clownfish,,NA,NA,graduated_college,A3V57BKH58EUIY,english,female,,NA,You see a parade of animals.,2,1566831714211,NA,images/clownfish.png,NA,100,,small,NA,main1
416,NA,Mon Aug 26 2019 08:01:54 GMT-0700 (Pacific Daylight Time),images/bird-parade2.png,10,NA,NA,That's a big ,no,1,3PKJ68EHDNKFZ0Z27WPY6E9IR8TJHB,birds,patricia,3EO896NRAXJ8RTOQXSBP8H8UR4GTJY,NA,yes,This one is also in the parade.,prenominal,You say to your friend:,35,eagle,,NA,NA,graduated_college,A3V57BKH58EUIY,english,female,,NA,You see a parade of animals.,3,1566831714211,NA,images/eagle.png,NA,100,,big,NA,main1
416,pug,Mon Aug 26 2019 08:01:54 GMT-0700 (Pacific Daylight Time),NA,10,warmup/great-dane.jpg,pug,This is a ,no,1,3PKJ68EHDNKFZ0Z27WPY6E9IR8TJHB,dogs,patricia,3EO896NRAXJ8RTOQXSBP8H8UR4GTJY,great dane,yes,Please label the pictures below.,NA,NA,35,NA,,warmup/pug.jpg,dogs,graduated_college,A3V57BKH58EUIY,english,female,NA,dogs,NA,1,1566831714211,1,NA,This is a ,100,These are both,NA,great dane,warmup2
416,swan,Mon Aug 26 2019 08:01:54 GMT-0700 (Pacific Daylight Time),NA,10,warmup/sparrow.jpg,goose,This is a ,no,1,3PKJ68EHDNKFZ0Z27WPY6E9IR8TJHB,birds,patricia,3EO896NRAXJ8RTOQXSBP8H8UR4GTJY,sparrow,yes,Please label the pictures below.,NA,NA,35,NA,,warmup/goose.png,birds,graduated_college,A3V57BKH58EUIY,english,female,NA,birds,NA,2,1566831714211,1,NA,This is a ,100,These are both,NA,pigeon,warmup2
416,goose,Mon Aug 26 2019 08:01:54 GMT-0700 (Pacific Daylight Time),NA,10,warmup/sparrow.jpg,goose,This is a ,no,1,3PKJ68EHDNKFZ0Z27WPY6E9IR8TJHB,birds,patricia,3EO896NRAXJ8RTOQXSBP8H8UR4GTJY,sparrow,yes,Please label the pictures below.,NA,NA,35,NA,,warmup/goose.png,birds,graduated_college,A3V57BKH58EUIY,english,female,NA,birds,NA,2,1566831714211,2,NA,This is a ,100,These are both,NA,sparrow,warmup2
416,dandelion,Mon Aug 26 2019 08:01:54 GMT-0700 (Pacific Daylight Time),NA,10,warmup/sunflower.png,dandelion,This is a ,no,1,3PKJ68EHDNKFZ0Z27WPY6E9IR8TJHB,flowers,patricia,3EO896NRAXJ8RTOQXSBP8H8UR4GTJY,sunflower,yes,Please label the pictures below.,NA,NA,35,NA,,warmup/dandelion.jpg,flowers,graduated_college,A3V57BKH58EUIY,english,female,NA,flowers,NA,3,1566831714211,1,NA,This is a ,100,These are both,NA,sunflower,warmup2
416,NA,Mon Aug 26 2019 08:01:54 GMT-0700 (Pacific Daylight Time),images/dog-parade2.png,10,NA,NA,That's a small ,no,1,3PKJ68EHDNKFZ0Z27WPY6E9IR8TJHB,dogs,patricia,3EO896NRAXJ8RTOQXSBP8H8UR4GTJY,NA,yes,This one is also in the parade.,prenominal,You say to your friend:,35,pug,,NA,NA,graduated_college,A3V57BKH58EUIY,english,female,,NA,You see a parade of animals.,1,1566831714211,NA,images/pug.png,NA,100,,small,NA,main2
416,NA,Mon Aug 26 2019 08:01:54 GMT-0700 (Pacific Daylight Time),images/flower-parade2.png,10,NA,NA,That's a big ,no,1,3PKJ68EHDNKFZ0Z27WPY6E9IR8TJHB,flowers,patricia,3EO896NRAXJ8RTOQXSBP8H8UR4GTJY,NA,yes,This one is also in the collection.,prenominal,You say to your friend:,35,sunflower,,NA,NA,graduated_college,A3V57BKH58EUIY,english,female,,NA,You see a collection of plants.,2,1566831714211,NA,images/sunflower.png,NA,100,,big,NA,main2
416,NA,Mon Aug 26 2019 08:01:54 GMT-0700 (Pacific Daylight Time),images/bird-parade.png,10,NA,NA,That's a small ,no,1,3PKJ68EHDNKFZ0Z27WPY6E9IR8TJHB,birds,patricia,3EO896NRAXJ8RTOQXSBP8H8UR4GTJY,NA,yes,This one is also in the parade.,prenominal,You say to your friend:,35,pigeon,,NA,NA,graduated_college,A3V57BKH58EUIY,english,female,,NA,You see a parade of animals.,3,1566831714211,NA,images/sparrow.png,NA,100,,small,NA,main2
412,hummingbird,Mon Aug 26 2019 09:56:15 GMT-0500 (Central Daylight Time),NA,10,warmup/eagle.jpg,hummingbird,This is a ,no,2,3CMV9YRYP3PHLWISYH4WY62P8P2LJK,birds,susan,3IJXV6UZ1Y7ZG3RSBLLUW1SCQ4UIRY,eagle,yes,Please label the pictures below.,NA,NA,44,NA,,warmup/colibri.jpg,birds,graduated_college,A2UTDZAZV1DF0N,english,male,NA,birds,NA,1,1566831375290,1,NA,This is an ,1.00,These are both,NA,eagle,warmup1
412,chiuaua,Mon Aug 26 2019 09:56:15 GMT-0500 (Central Daylight Time),NA,10,warmup/doberman.png,chihuahua,This is a ,no,2,3CMV9YRYP3PHLWISYH4WY62P8P2LJK,dogs,susan,3IJXV6UZ1Y7ZG3RSBLLUW1SCQ4UIRY,doberman,yes,Please label the pictures below.,NA,NA,44,NA,,warmup/chihuahua.jpg,dogs,graduated_college,A2UTDZAZV1DF0N,english,male,NA,dogs,NA,2,1566831375290,1,NA,This is a ,1.00,These are both,NA,doberman,warmup1
412,chihuahua,Mon Aug 26 2019 09:56:15 GMT-0500 (Central Daylight Time),NA,10,warmup/doberman.png,chihuahua,This is a ,no,2,3CMV9YRYP3PHLWISYH4WY62P8P2LJK,dogs,susan,3IJXV6UZ1Y7ZG3RSBLLUW1SCQ4UIRY,doberman,yes,Please label the pictures below.,NA,NA,44,NA,,warmup/chihuahua.jpg,dogs,graduated_college,A2UTDZAZV1DF0N,english,male,NA,dogs,NA,2,1566831375290,2,NA,This is a ,1.00,These are both,NA,doberman,warmup1
412,daisy,Mon Aug 26 2019 09:56:15 GMT-0500 (Central Daylight Time),NA,10,warmup/peony.png,daisy,This is a ,no,2,3CMV9YRYP3PHLWISYH4WY62P8P2LJK,flowers,susan,3IJXV6UZ1Y7ZG3RSBLLUW1SCQ4UIRY,peony,yes,Please label the pictures below.,NA,NA,44,NA,,warmup/daisy.png,flowers,graduated_college,A2UTDZAZV1DF0N,english,male,NA,flowers,NA,3,1566831375290,1,NA,This is a ,1.00,These are both,NA,carnation,warmup1
412,daisy,Mon Aug 26 2019 09:56:15 GMT-0500 (Central Daylight Time),NA,10,warmup/peony.png,daisy,This is a ,no,2,3CMV9YRYP3PHLWISYH4WY62P8P2LJK,flowers,susan,3IJXV6UZ1Y7ZG3RSBLLUW1SCQ4UIRY,peony,yes,Please label the pictures below.,NA,NA,44,NA,,warmup/daisy.png,flowers,graduated_college,A2UTDZAZV1DF0N,english,male,NA,flowers,NA,3,1566831375290,2,NA,This is a ,1.00,These are both,NA,peony,warmup1
412,NA,Mon Aug 26 2019 09:56:15 GMT-0500 (Central Daylight Time),images/bird-parade2.png,10,NA,NA,That's a big ,no,2,3CMV9YRYP3PHLWISYH4WY62P8P2LJK,birds,susan,3IJXV6UZ1Y7ZG3RSBLLUW1SCQ4UIRY,NA,yes,This one is also in the parade.,prenominal,You say to your friend:,44,eagle,,NA,NA,graduated_college,A2UTDZAZV1DF0N,english,male,,NA,You see a parade of animals.,1,1566831375290,NA,images/eagle.png,NA,1.00,,big,NA,main1
412,NA,Mon Aug 26 2019 09:56:15 GMT-0500 (Central Daylight Time),images/flower-parade.png,10,NA,NA,That's a small ,no,2,3CMV9YRYP3PHLWISYH4WY62P8P2LJK,flowers,susan,3IJXV6UZ1Y7ZG3RSBLLUW1SCQ4UIRY,NA,yes,This one is also in the collection.,prenominal,You say to your friend:,44,daisy,,NA,NA,graduated_college,A2UTDZAZV1DF0N,english,male,,NA,You see a collection of plants.,2,1566831375290,NA,images/daisy.png,NA,1.00,,small,NA,main1
412,NA,Mon Aug 26 2019 09:56:15 GMT-0500 (Central Daylight Time),images/dog-parade.png,10,NA,NA,That's a small ,no,2,3CMV9YRYP3PHLWISYH4WY62P8P2LJK,dogs,susan,3IJXV6UZ1Y7ZG3RSBLLUW1SCQ4UIRY,NA,yes,This one is also in the parade.,prenominal,You say to your friend:,44,dog,,NA,NA,graduated_college,A2UTDZAZV1DF0N,english,male,,NA,You see a parade of animals.,3,1566831375290,NA,images/chihuahua.png,NA,1.00,,small,NA,main1
412,mackeral,Mon Aug 26 2019 09:56:15 GMT-0500 (Central Daylight Time),NA,10,warmup/clownfish.jpg,tuna,This is a ,no,2,3CMV9YRYP3PHLWISYH4WY62P8P2LJK,fish,susan,3IJXV6UZ1Y7ZG3RSBLLUW1SCQ4UIRY,clownfish,yes,Please label the pictures below.,NA,NA,44,NA,,warmup/tuna.jpg,fish,graduated_college,A2UTDZAZV1DF0N,english,male,NA,fish,NA,1,1566831375290,1,NA,This is a ,1.00,These are both,NA,clown fish,warmup2
412,tuna,Mon Aug 26 2019 09:56:15 GMT-0500 (Central Daylight Time),NA,10,warmup/clownfish.jpg,tuna,This is a ,no,2,3CMV9YRYP3PHLWISYH4WY62P8P2LJK,fish,susan,3IJXV6UZ1Y7ZG3RSBLLUW1SCQ4UIRY,clownfish,yes,Please label the pictures below.,NA,NA,44,NA,,warmup/tuna.jpg,"fish\nfish\nfish",graduated_college,A2UTDZAZV1DF0N,english,male,NA,fish,NA,1,1566831375290,2,NA,This is a ,1.00,These are both,NA,clownfish,warmup2
412,tuna,Mon Aug 26 2019 09:56:15 GMT-0500 (Central Daylight Time),NA,10,warmup/clownfish.jpg,tuna,This is a ,no,2,3CMV9YRYP3PHLWISYH4WY62P8P2LJK,fish,susan,3IJXV6UZ1Y7ZG3RSBLLUW1SCQ4UIRY,clownfish,yes,Please label the pictures below.,NA,NA,44,NA,,warmup/tuna.jpg,"fish\nfish\nfish",graduated_college,A2UTDZAZV1DF0N,english,male,NA,fish,NA,1,1566831375290,3,NA,This is a ,1.00,These are both,NA,clownfish,warmup2
412,tuna,Mon Aug 26 2019 09:56:15 GMT-0500 (Central Daylight Time),NA,10,warmup/clownfish.jpg,tuna,This is a ,no,2,3CMV9YRYP3PHLWISYH4WY62P8P2LJK,fish,susan,3IJXV6UZ1Y7ZG3RSBLLUW1SCQ4UIRY,clownfish,yes,Please label the pictures below.,NA,NA,44,NA,,warmup/tuna.jpg,fish,graduated_college,A2UTDZAZV1DF0N,english,male,NA,fish,NA,1,1566831375290,4,NA,This is a ,1.00,These are both,NA,clownfish,warmup2
412,swordfish,Mon Aug 26 2019 09:56:15 GMT-0500 (Central Daylight Time),NA,10,warmup/goldfish.png,swordfish,This is a ,no,2,3CMV9YRYP3PHLWISYH4WY62P8P2LJK,fish,susan,3IJXV6UZ1Y7ZG3RSBLLUW1SCQ4UIRY,goldfish,yes,Please label the pictures below.,NA,NA,44,NA,,warmup/swordfish.jpg,fish,graduated_college,A2UTDZAZV1DF0N,english,male,NA,fish,NA,2,1566831375290,1,NA,This is a ,1.00,These are both,NA,godlfish,warmup2
412,swordfish,Mon Aug 26 2019 09:56:15 GMT-0500 (Central Daylight Time),NA,10,warmup/goldfish.png,swordfish,This is a ,no,2,3CMV9YRYP3PHLWISYH4WY62P8P2LJK,fish,susan,3IJXV6UZ1Y7ZG3RSBLLUW1SCQ4UIRY,goldfish,yes,Please label the pictures below.,NA,NA,44,NA,,warmup/swordfish.jpg,fish,graduated_college,A2UTDZAZV1DF0N,english,male,NA,fish,NA,2,1566831375290,2,NA,This is a ,1.00,These are both,NA,goldfish,warmup2
412,fern,Mon Aug 26 2019 09:56:15 GMT-0500 (Central Daylight Time),NA,10,warmup/bonsai.jpg,redwood|sequoia,This is a ,no,2,3CMV9YRYP3PHLWISYH4WY62P8P2LJK,trees,susan,3IJXV6UZ1Y7ZG3RSBLLUW1SCQ4UIRY,bonsai,yes,Please label the pictures below.,NA,NA,44,NA,,warmup/sequoia.jpg,trees,graduated_college,A2UTDZAZV1DF0N,english,male,NA,trees,NA,3,1566831375290,1,NA,This is a ,1.00,These are both,NA,bonsai,warmup2
412,redwood,Mon Aug 26 2019 09:56:15 GMT-0500 (Central Daylight Time),NA,10,warmup/bonsai.jpg,redwood|sequoia,This is a ,no,2,3CMV9YRYP3PHLWISYH4WY62P8P2LJK,trees,susan,3IJXV6UZ1Y7ZG3RSBLLUW1SCQ4UIRY,bonsai,yes,Please label the pictures below.,NA,NA,44,NA,,warmup/sequoia.jpg,trees,graduated_college,A2UTDZAZV1DF0N,english,male,NA,trees,NA,3,1566831375290,2,NA,This is a ,1.00,These are both,NA,bonsai,warmup2
412,NA,Mon Aug 26 2019 09:56:15 GMT-0500 (Central Daylight Time),images/tree-parade.png,10,NA,NA,That's a big ,no,2,3CMV9YRYP3PHLWISYH4WY62P8P2LJK,trees,susan,3IJXV6UZ1Y7ZG3RSBLLUW1SCQ4UIRY,NA,yes,This one is also in the landscape.,prenominal,You say to your friend:,44,tree,,NA,NA,graduated_college,A2UTDZAZV1DF0N,english,male,,NA,You see the following items in a landscape.,1,1566831375290,NA,images/sequoia.png,NA,1.00,,big,NA,main2
412,NA,Mon Aug 26 2019 09:56:15 GMT-0500 (Central Daylight Time),images/fish-parade2.png,10,NA,NA,That's a big ,no,2,3CMV9YRYP3PHLWISYH4WY62P8P2LJK,fish,susan,3IJXV6UZ1Y7ZG3RSBLLUW1SCQ4UIRY,NA,yes,This one is also in the parade.,prenominal,You say to your friend:,44,fish,,NA,NA,graduated_college,A2UTDZAZV1DF0N,english,male,,NA,You see a parade of animals.,2,1566831375290,NA,images/tuna.png,NA,1.00,,big,NA,main2
412,NA,Mon Aug 26 2019 09:56:15 GMT-0500 (Central Daylight Time),images/fish-parade.png,10,NA,NA,That's a small ,no,2,3CMV9YRYP3PHLWISYH4WY62P8P2LJK,fish,susan,3IJXV6UZ1Y7ZG3RSBLLUW1SCQ4UIRY,NA,yes,This one is also in the parade.,prenominal,You say to your friend:,44,fish,,NA,NA,graduated_college,A2UTDZAZV1DF0N,english,male,,NA,You see a parade of animals.,3,1566831375290,NA,images/goldfish.png,NA,1.00,,small,NA,main2
410,tree,Mon Aug 26 2019 10:59:19 GMT-0400 (Eastern Daylight Time),NA,10,warmup/bonsai.jpg,redwood|sequoia,This is a ,No,2,3CMV9YRYP3PHLWISYH4WY62P8P2LJK,trees,barbara,3XCC1ODXDMZCX1FBOTQ353JYHEBQR9,bonsai,yes,Please label the pictures below.,NA,NA,26,NA,,warmup/sequoia.jpg,tree,graduated_college,A1J8TVICSRC70W,English,female,NA,trees,NA,1,1566831559135,1,NA,This is a ,1.50,These are both,NA,tree,warmup1
410,redwood,Mon Aug 26 2019 10:59:19 GMT-0400 (Eastern Daylight Time),NA,10,warmup/bonsai.jpg,redwood|sequoia,This is a ,No,2,3CMV9YRYP3PHLWISYH4WY62P8P2LJK,trees,barbara,3XCC1ODXDMZCX1FBOTQ353JYHEBQR9,bonsai,yes,Please label the pictures below.,NA,NA,26,NA,,warmup/sequoia.jpg,trees,graduated_college,A1J8TVICSRC70W,English,female,NA,trees,NA,1,1566831559135,2,NA,This is a ,1.50,These are both,NA,bonsai,warmup1
410,Daisy,Mon Aug 26 2019 10:59:19 GMT-0400 (Eastern Daylight Time),NA,10,warmup/sunflower.png,dandelion,This is a ,No,2,3CMV9YRYP3PHLWISYH4WY62P8P2LJK,flowers,barbara,3XCC1ODXDMZCX1FBOTQ353JYHEBQR9,sunflower,yes,Please label the pictures below.,NA,NA,26,NA,,warmup/dandelion.jpg,flwoers,graduated_college,A1J8TVICSRC70W,English,female,NA,flowers,NA,2,1566831559135,1,NA,This is a ,1.50,These are both,NA,sunflower,warmup1
410,dandelion,Mon Aug 26 2019 10:59:19 GMT-0400 (Eastern Daylight Time),NA,10,warmup/sunflower.png,dandelion,This is a ,No,2,3CMV9YRYP3PHLWISYH4WY62P8P2LJK,flowers,barbara,3XCC1ODXDMZCX1FBOTQ353JYHEBQR9,sunflower,yes,Please label the pictures below.,NA,NA,26,NA,,warmup/dandelion.jpg,flowers,graduated_college,A1J8TVICSRC70W,English,female,NA,flowers,NA,2,1566831559135,2,NA,This is a ,1.50,These are both,NA,sunflower,warmup1
410,Tuna,Mon Aug 26 2019 10:59:19 GMT-0400 (Eastern Daylight Time),NA,10,warmup/clownfish.jpg,tuna,This is a ,No,2,3CMV9YRYP3PHLWISYH4WY62P8P2LJK,fish,barbara,3XCC1ODXDMZCX1FBOTQ353JYHEBQR9,clownfish,yes,Please label the pictures below.,NA,NA,26,NA,,warmup/tuna.jpg,Fish,graduated_college,A1J8TVICSRC70W,English,female,NA,fish,NA,3,1566831559135,1,NA,This is a ,1.50,These are both,NA,Clownfish,warmup1
410,NA,Mon Aug 26 2019 10:59:19 GMT-0400 (Eastern Daylight Time),images/tree-parade.png,10,NA,NA,That's a big ,No,2,3CMV9YRYP3PHLWISYH4WY62P8P2LJK,trees,barbara,3XCC1ODXDMZCX1FBOTQ353JYHEBQR9,NA,yes,This one is also in the landscape.,prenominal,You say to your friend:,26,tree,,NA,NA,graduated_college,A1J8TVICSRC70W,English,female,,NA,You see the following items in a landscape.,1,1566831559135,NA,images/sequoia.png,NA,1.50,,big,NA,main1
410,NA,Mon Aug 26 2019 10:59:19 GMT-0400 (Eastern Daylight Time),images/flower-parade2.png,10,NA,NA,That's a big ,No,2,3CMV9YRYP3PHLWISYH4WY62P8P2LJK,flowers,barbara,3XCC1ODXDMZCX1FBOTQ353JYHEBQR9,NA,yes,This one is also in the collection.,prenominal,You say to your friend:,26,sunflower,,NA,NA,graduated_college,A1J8TVICSRC70W,English,female,,NA,You see a collection of plants.,2,1566831559135,NA,images/sunflower.png,NA,1.50,,big,NA,main1
410,NA,Mon Aug 26 2019 10:59:19 GMT-0400 (Eastern Daylight Time),images/fish-parade2.png,10,NA,NA,That's a small ,No,2,3CMV9YRYP3PHLWISYH4WY62P8P2LJK,fish,barbara,3XCC1ODXDMZCX1FBOTQ353JYHEBQR9,NA,yes,This one is also in the parade.,prenominal,You say to your friend:,26,clownfish,,NA,NA,graduated_college,A1J8TVICSRC70W,English,female,,NA,You see a parade of animals.,3,1566831559135,NA,images/clownfish.png,NA,1.50,,small,NA,main1
410,sharphead,Mon Aug 26 2019 10:59:19 GMT-0400 (Eastern Daylight Time),NA,10,warmup/goldfish.png,swordfish,This is a ,No,2,3CMV9YRYP3PHLWISYH4WY62P8P2LJK,fish,barbara,3XCC1ODXDMZCX1FBOTQ353JYHEBQR9,goldfish,yes,Please label the pictures below.,NA,NA,26,NA,,warmup/swordfish.jpg,Fish,graduated_college,A1J8TVICSRC70W,English,female,NA,fish,NA,1,1566831559135,1,NA,This is a ,1.50,These are both,NA,Clownfish,warmup2
410,swordfish,Mon Aug 26 2019 10:59:19 GMT-0400 (Eastern Daylight Time),NA,10,warmup/goldfish.png,swordfish,This is a ,No,2,3CMV9YRYP3PHLWISYH4WY62P8P2LJK,fish,barbara,3XCC1ODXDMZCX1FBOTQ353JYHEBQR9,goldfish,yes,Please label the pictures below.,NA,NA,26,NA,,warmup/swordfish.jpg,Fish,graduated_college,A1J8TVICSRC70W,English,female,NA,fish,NA,1,1566831559135,2,NA,This is a ,1.50,These are both,NA,goldfish,warmup2
410,chiauahah,Mon Aug 26 2019 10:59:19 GMT-0400 (Eastern Daylight Time),NA,10,warmup/doberman.png,chihuahua,This is a ,No,2,3CMV9YRYP3PHLWISYH4WY62P8P2LJK,dogs,barbara,3XCC1ODXDMZCX1FBOTQ353JYHEBQR9,doberman,yes,Please label the pictures below.,NA,NA,26,NA,,warmup/chihuahua.jpg,dogs,graduated_college,A1J8TVICSRC70W,English,female,NA,dogs,NA,2,1566831559135,1,NA,This is a ,1.50,These are both,NA,doberman,warmup2
410,chihuahua,Mon Aug 26 2019 10:59:19 GMT-0400 (Eastern Daylight Time),NA,10,warmup/doberman.png,chihuahua,This is a ,No,2,3CMV9YRYP3PHLWISYH4WY62P8P2LJK,dogs,barbara,3XCC1ODXDMZCX1FBOTQ353JYHEBQR9,doberman,yes,Please label the pictures below.,NA,NA,26,NA,,warmup/chihuahua.jpg,dogs,graduated_college,A1J8TVICSRC70W,English,female,NA,dogs,NA,2,1566831559135,2,NA,This is a ,1.50,These are both,NA,doberman,warmup2
410,hummingbird,Mon Aug 26 2019 10:59:19 GMT-0400 (Eastern Daylight Time),NA,10,warmup/eagle.jpg,hummingbird,This is a ,No,2,3CMV9YRYP3PHLWISYH4WY62P8P2LJK,birds,barbara,3XCC1ODXDMZCX1FBOTQ353JYHEBQR9,eagle,yes,Please label the pictures below.,NA,NA,26,NA,,warmup/colibri.jpg,birds,graduated_college,A1J8TVICSRC70W,English,female,NA,birds,NA,3,1566831559135,1,NA,This is an ,1.50,These are both,NA,eagle,warmup2
410,NA,Mon Aug 26 2019 10:59:19 GMT-0400 (Eastern Daylight Time),images/bird-parade2.png,10,NA,NA,That's a small ,No,2,3CMV9YRYP3PHLWISYH4WY62P8P2LJK,birds,barbara,3XCC1ODXDMZCX1FBOTQ353JYHEBQR9,NA,yes,This one is also in the parade.,prenominal,You say to your friend:,26,hummingbird,,NA,NA,graduated_college,A1J8TVICSRC70W,English,female,,NA,You see a parade of animals.,1,1566831559135,NA,images/hummingbird.png,NA,1.50,,small,NA,main2
410,NA,Mon Aug 26 2019 10:59:19 GMT-0400 (Eastern Daylight Time),images/fish-parade.png,10,NA,NA,That's a small ,No,2,3CMV9YRYP3PHLWISYH4WY62P8P2LJK,fish,barbara,3XCC1ODXDMZCX1FBOTQ353JYHEBQR9,NA,yes,This one is also in the parade.,prenominal,You say to your friend:,26,goldfish,,NA,NA,graduated_college,A1J8TVICSRC70W,English,female,,NA,You see a parade of animals.,2,1566831559135,NA,images/goldfish.png,NA,1.50,,small,NA,main2
410,NA,Mon Aug 26 2019 10:59:19 GMT-0400 (Eastern Daylight Time),images/dog-parade.png,10,NA,NA,That's a big ,No,2,3CMV9YRYP3PHLWISYH4WY62P8P2LJK,dogs,barbara,3XCC1ODXDMZCX1FBOTQ353JYHEBQR9,NA,yes,This one is also in the parade.,prenominal,You say to your friend:,26,doberman,,NA,NA,graduated_college,A1J8TVICSRC70W,English,female,,NA,You see a parade of animals.,3,1566831559135,NA,images/doberman.png,NA,1.50,,big,NA,main2
408,Chihuahua,Mon Aug 26 2019 10:56:51 GMT-0400 (Eastern Daylight Time),NA,10,warmup/doberman.png,chihuahua,This is a ,No,1,3DW3BNF1GH6VXKY3LH9BWPRDJCA8V6,dogs,sarah,3OS46CRSLGNBGQD8I4HF0VRA2JCV6A,doberman,,Please label the pictures below.,NA,NA,,NA,,warmup/chihuahua.jpg,dogs,,A2T675UCHNTSSW,,,NA,dogs,NA,1,1566831411543,1,NA,This is a ,1.00,These are both,NA,Doberman Pinscher,warmup1
408,Chihuahua,Mon Aug 26 2019 10:56:51 GMT-0400 (Eastern Daylight Time),NA,10,warmup/doberman.png,chihuahua,This is a ,No,1,3DW3BNF1GH6VXKY3LH9BWPRDJCA8V6,dogs,sarah,3OS46CRSLGNBGQD8I4HF0VRA2JCV6A,doberman,,Please label the pictures below.,NA,NA,,NA,,warmup/chihuahua.jpg,dogs,,A2T675UCHNTSSW,,,NA,dogs,NA,1,1566831411543,2,NA,This is a ,1.00,These are both,NA,doberman Pinscher,warmup1
408,Chihuahua,Mon Aug 26 2019 10:56:51 GMT-0400 (Eastern Daylight Time),NA,10,warmup/doberman.png,chihuahua,This is a ,No,1,3DW3BNF1GH6VXKY3LH9BWPRDJCA8V6,dogs,sarah,3OS46CRSLGNBGQD8I4HF0VRA2JCV6A,doberman,,Please label the pictures below.,NA,NA,,NA,,warmup/chihuahua.jpg,dogs,,A2T675UCHNTSSW,,,NA,dogs,NA,1,1566831411543,3,NA,This is a ,1.00,These are both,NA,doberman,warmup1
408,tuna,Mon Aug 26 2019 10:56:51 GMT-0400 (Eastern Daylight Time),NA,10,warmup/clownfish.jpg,tuna,This is a ,No,1,3DW3BNF1GH6VXKY3LH9BWPRDJCA8V6,fish,sarah,3OS46CRSLGNBGQD8I4HF0VRA2JCV6A,clownfish,,Please label the pictures below.,NA,NA,,NA,,warmup/tuna.jpg,fish,,A2T675UCHNTSSW,,,NA,fish,NA,2,1566831411543,1,NA,This is a ,1.00,These are both,NA,clown fish,warmup1
408,tuna,Mon Aug 26 2019 10:56:51 GMT-0400 (Eastern Daylight Time),NA,10,warmup/clownfish.jpg,tuna,This is a ,No,1,3DW3BNF1GH6VXKY3LH9BWPRDJCA8V6,fish,sarah,3OS46CRSLGNBGQD8I4HF0VRA2JCV6A,clownfish,,Please label the pictures below.,NA,NA,,NA,,warmup/tuna.jpg,fish,,A2T675UCHNTSSW,,,NA,fish,NA,2,1566831411543,2,NA,This is a ,1.00,These are both,NA,clownfish,warmup1
408,swan,Mon Aug 26 2019 10:56:51 GMT-0400 (Eastern Daylight Time),NA,10,warmup/canary.jpg,swan,This is a ,No,1,3DW3BNF1GH6VXKY3LH9BWPRDJCA8V6,birds,sarah,3OS46CRSLGNBGQD8I4HF0VRA2JCV6A,canary,,Please label the pictures below.,NA,NA,,NA,,warmup/swan.jpg,birds,,A2T675UCHNTSSW,,,NA,birds,NA,3,1566831411543,1,NA,This is a ,1.00,These are both,NA,canary,warmup1
408,NA,Mon Aug 26 2019 10:56:51 GMT-0400 (Eastern Daylight Time),images/dog-parade.png,10,NA,NA,That's a small ,No,1,3DW3BNF1GH6VXKY3LH9BWPRDJCA8V6,dogs,sarah,3OS46CRSLGNBGQD8I4HF0VRA2JCV6A,NA,,This one is also in the parade.,prenominal,You say to your friend:,,dog,,NA,NA,,A2T675UCHNTSSW,,,,NA,You see a parade of animals.,1,1566831411543,NA,images/chihuahua.png,NA,1.00,,small,NA,main1
408,NA,Mon Aug 26 2019 10:56:51 GMT-0400 (Eastern Daylight Time),images/fish-parade2.png,10,NA,NA,That's a big ,No,1,3DW3BNF1GH6VXKY3LH9BWPRDJCA8V6,fish,sarah,3OS46CRSLGNBGQD8I4HF0VRA2JCV6A,NA,,This one is also in the parade.,prenominal,You say to your friend:,,tuna,,NA,NA,,A2T675UCHNTSSW,,,,NA,You see a parade of animals.,2,1566831411543,NA,images/tuna.png,NA,1.00,,big,NA,main1
408,NA,Mon Aug 26 2019 10:56:51 GMT-0400 (Eastern Daylight Time),images/bird-parade3.png,10,NA,NA,That's a small ,No,1,3DW3BNF1GH6VXKY3LH9BWPRDJCA8V6,birds,sarah,3OS46CRSLGNBGQD8I4HF0VRA2JCV6A,NA,,This one is also in the parade.,prenominal,You say to your friend:,,canary,,NA,NA,,A2T675UCHNTSSW,,,,NA,You see a parade of animals.,3,1566831411543,NA,images/canary.png,NA,1.00,,small,NA,main1
408,goose,Mon Aug 26 2019 10:56:51 GMT-0400 (Eastern Daylight Time),NA,10,warmup/sparrow.jpg,goose,This is a ,No,1,3DW3BNF1GH6VXKY3LH9BWPRDJCA8V6,birds,sarah,3OS46CRSLGNBGQD8I4HF0VRA2JCV6A,sparrow,,Please label the pictures below.,NA,NA,,NA,,warmup/goose.png,birds,,A2T675UCHNTSSW,,,NA,birds,NA,1,1566831411543,1,NA,This is a ,1.00,These are both,NA,finch,warmup2
408,goose,Mon Aug 26 2019 10:56:51 GMT-0400 (Eastern Daylight Time),NA,10,warmup/sparrow.jpg,goose,This is a ,No,1,3DW3BNF1GH6VXKY3LH9BWPRDJCA8V6,birds,sarah,3OS46CRSLGNBGQD8I4HF0VRA2JCV6A,sparrow,,Please label the pictures below.,NA,NA,,NA,,warmup/goose.png,birds,,A2T675UCHNTSSW,,,NA,birds,NA,1,1566831411543,2,NA,This is a ,1.00,These are both,NA,sparrow,warmup2
408,pug,Mon Aug 26 2019 10:56:51 GMT-0400 (Eastern Daylight Time),NA,10,warmup/great-dane.jpg,pug,This is a ,No,1,3DW3BNF1GH6VXKY3LH9BWPRDJCA8V6,dogs,sarah,3OS46CRSLGNBGQD8I4HF0VRA2JCV6A,great dane,,Please label the pictures below.,NA,NA,,NA,,warmup/pug.jpg,dogs,,A2T675UCHNTSSW,,,NA,dogs,NA,2,1566831411543,1,NA,This is a ,1.00,These are both,NA,great dane,warmup2
408,daisey,Mon Aug 26 2019 10:56:51 GMT-0400 (Eastern Daylight Time),NA,10,warmup/peony.png,daisy,This is a ,No,1,3DW3BNF1GH6VXKY3LH9BWPRDJCA8V6,flowers,sarah,3OS46CRSLGNBGQD8I4HF0VRA2JCV6A,peony,,Please label the pictures below.,NA,NA,,NA,,warmup/daisy.png,flowers,,A2T675UCHNTSSW,,,NA,flowers,NA,3,1566831411543,1,NA,This is a ,1.00,These are both,NA,peony,warmup2
408,daisy,Mon Aug 26 2019 10:56:51 GMT-0400 (Eastern Daylight Time),NA,10,warmup/peony.png,daisy,This is a ,No,1,3DW3BNF1GH6VXKY3LH9BWPRDJCA8V6,flowers,sarah,3OS46CRSLGNBGQD8I4HF0VRA2JCV6A,peony,,Please label the pictures below.,NA,NA,,NA,,warmup/daisy.png,flowers,,A2T675UCHNTSSW,,,NA,flowers,NA,3,1566831411543,2,NA,This is a ,1.00,These are both,NA,peony,warmup2
408,NA,Mon Aug 26 2019 10:56:51 GMT-0400 (Eastern Daylight Time),images/bird-parade.png,10,NA,NA,That's a small ,No,1,3DW3BNF1GH6VXKY3LH9BWPRDJCA8V6,birds,sarah,3OS46CRSLGNBGQD8I4HF0VRA2JCV6A,NA,,This one is also in the parade.,prenominal,You say to your friend:,,bird,,NA,NA,,A2T675UCHNTSSW,,,,NA,You see a parade of animals.,1,1566831411543,NA,images/sparrow.png,NA,1.00,,small,NA,main2
408,NA,Mon Aug 26 2019 10:56:51 GMT-0400 (Eastern Daylight Time),images/dog-parade2.png,10,NA,NA,That's a big ,No,1,3DW3BNF1GH6VXKY3LH9BWPRDJCA8V6,dogs,sarah,3OS46CRSLGNBGQD8I4HF0VRA2JCV6A,NA,,This one is also in the parade.,prenominal,You say to your friend:,,dog,,NA,NA,,A2T675UCHNTSSW,,,,NA,You see a parade of animals.,2,1566831411543,NA,images/great-dane.png,NA,1.00,,big,NA,main2
408,NA,Mon Aug 26 2019 10:56:51 GMT-0400 (Eastern Daylight Time),images/flower-parade.png,10,NA,NA,That's a big ,No,1,3DW3BNF1GH6VXKY3LH9BWPRDJCA8V6,flowers,sarah,3OS46CRSLGNBGQD8I4HF0VRA2JCV6A,NA,,This one is also in the collection.,prenominal,You say to your friend:,,flower,,NA,NA,,A2T675UCHNTSSW,,,,NA,You see a collection of plants.,3,1566831411543,NA,images/peony.png,NA,1.00,,big,NA,main2
406,hummingbird,Mon Aug 26 2019 10:54:38 GMT-0400 (Eastern Daylight Time),NA,10,warmup/eagle.jpg,hummingbird,This is a ,,1,3DW3BNF1GH6VXKY3LH9BWPRDJCA8V6,birds,Patricia ,358010RM5FHOZ5X4JRQ5084UZNBXV6,eagle,yes,Please label the pictures below.,NA,NA,21,NA,,warmup/colibri.jpg,birds,some_college,A2ETXCA9X5P484,english,male,NA,birds,NA,1,1566831278478,1,NA,This is an ,3,These are both,NA,eagle,warmup1
406,flounder,Mon Aug 26 2019 10:54:38 GMT-0400 (Eastern Daylight Time),NA,10,warmup/clownfish.jpg,tuna,This is a ,,1,3DW3BNF1GH6VXKY3LH9BWPRDJCA8V6,fish,Patricia ,358010RM5FHOZ5X4JRQ5084UZNBXV6,clownfish,yes,Please label the pictures below.,NA,NA,21,NA,,warmup/tuna.jpg,fish,some_college,A2ETXCA9X5P484,english,male,NA,fish,NA,2,1566831278478,1,NA,This is a ,3,These are both,NA,goldfish,warmup1
406,tuna,Mon Aug 26 2019 10:54:38 GMT-0400 (Eastern Daylight Time),NA,10,warmup/clownfish.jpg,tuna,This is a ,,1,3DW3BNF1GH6VXKY3LH9BWPRDJCA8V6,fish,Patricia ,358010RM5FHOZ5X4JRQ5084UZNBXV6,clownfish,yes,Please label the pictures below.,NA,NA,21,NA,,warmup/tuna.jpg,fish,some_college,A2ETXCA9X5P484,english,male,NA,fish,NA,2,1566831278478,2,NA,This is a ,3,These are both,NA,goldfish,warmup1
406,tuna,Mon Aug 26 2019 10:54:38 GMT-0400 (Eastern Daylight Time),NA,10,warmup/clownfish.jpg,tuna,This is a ,,1,3DW3BNF1GH6VXKY3LH9BWPRDJCA8V6,fish,Patricia ,358010RM5FHOZ5X4JRQ5084UZNBXV6,clownfish,yes,Please label the pictures below.,NA,NA,21,NA,,warmup/tuna.jpg,fish,some_college,A2ETXCA9X5P484,english,male,NA,fish,NA,2,1566831278478,3,NA,This is a ,3,These are both,NA,goldfish,warmup1
406,tuna,Mon Aug 26 2019 10:54:38 GMT-0400 (Eastern Daylight Time),NA,10,warmup/clownfish.jpg,tuna,This is a ,,1,3DW3BNF1GH6VXKY3LH9BWPRDJCA8V6,fish,Patricia ,358010RM5FHOZ5X4JRQ5084UZNBXV6,clownfish,yes,Please label the pictures below.,NA,NA,21,NA,,warmup/tuna.jpg,fish,some_college,A2ETXCA9X5P484,english,male,NA,fish,NA,2,1566831278478,4,NA,This is a ,3,These are both,NA,clownfish,warmup1
406,swawn,Mon Aug 26 2019 10:54:38 GMT-0400 (Eastern Daylight Time),NA,10,warmup/canary.jpg,swan,This is a ,,1,3DW3BNF1GH6VXKY3LH9BWPRDJCA8V6,birds,Patricia ,358010RM5FHOZ5X4JRQ5084UZNBXV6,canary,yes,Please label the pictures below.,NA,NA,21,NA,,warmup/swan.jpg,"bird\nbird",some_college,A2ETXCA9X5P484,english,male,NA,birds,NA,3,1566831278478,1,NA,This is a ,3,These are both,NA,fvdfdf,warmup1
406,sawn,Mon Aug 26 2019 10:54:38 GMT-0400 (Eastern Daylight Time),NA,10,warmup/canary.jpg,swan,This is a ,,1,3DW3BNF1GH6VXKY3LH9BWPRDJCA8V6,birds,Patricia ,358010RM5FHOZ5X4JRQ5084UZNBXV6,canary,yes,Please label the pictures below.,NA,NA,21,NA,,warmup/swan.jpg,"bird\nbird",some_college,A2ETXCA9X5P484,english,male,NA,birds,NA,3,1566831278478,2,NA,This is a ,3,These are both,NA,canary,warmup1
406,swan,Mon Aug 26 2019 10:54:38 GMT-0400 (Eastern Daylight Time),NA,10,warmup/canary.jpg,swan,This is a ,,1,3DW3BNF1GH6VXKY3LH9BWPRDJCA8V6,birds,Patricia ,358010RM5FHOZ5X4JRQ5084UZNBXV6,canary,yes,Please label the pictures below.,NA,NA,21,NA,,warmup/swan.jpg,"bird\nbird",some_college,A2ETXCA9X5P484,english,male,NA,birds,NA,3,1566831278478,3,NA,This is a ,3,These are both,NA,canary,warmup1
406,swan,Mon Aug 26 2019 10:54:38 GMT-0400 (Eastern Daylight Time),NA,10,warmup/canary.jpg,swan,This is a ,,1,3DW3BNF1GH6VXKY3LH9BWPRDJCA8V6,birds,Patricia ,358010RM5FHOZ5X4JRQ5084UZNBXV6,canary,yes,Please label the pictures below.,NA,NA,21,NA,,warmup/swan.jpg,"bird\nbirds",some_college,A2ETXCA9X5P484,english,male,NA,birds,NA,3,1566831278478,4,NA,This is a ,3,These are both,NA,canary,warmup1
406,swan,Mon Aug 26 2019 10:54:38 GMT-0400 (Eastern Daylight Time),NA,10,warmup/canary.jpg,swan,This is a ,,1,3DW3BNF1GH6VXKY3LH9BWPRDJCA8V6,birds,Patricia ,358010RM5FHOZ5X4JRQ5084UZNBXV6,canary,yes,Please label the pictures below.,NA,NA,21,NA,,warmup/swan.jpg,"bird\nbirds",some_college,A2ETXCA9X5P484,english,male,NA,birds,NA,3,1566831278478,5,NA,This is a ,3,These are both,NA,canary,warmup1
406,swan,Mon Aug 26 2019 10:54:38 GMT-0400 (Eastern Daylight Time),NA,10,warmup/canary.jpg,swan,This is a ,,1,3DW3BNF1GH6VXKY3LH9BWPRDJCA8V6,birds,Patricia ,358010RM5FHOZ5X4JRQ5084UZNBXV6,canary,yes,Please label the pictures below.,NA,NA,21,NA,,warmup/swan.jpg,"bird\nbirds",some_college,A2ETXCA9X5P484,english,male,NA,birds,NA,3,1566831278478,6,NA,This is a ,3,These are both,NA,canary,warmup1
406,swan,Mon Aug 26 2019 10:54:38 GMT-0400 (Eastern Daylight Time),NA,10,warmup/canary.jpg,swan,This is a ,,1,3DW3BNF1GH6VXKY3LH9BWPRDJCA8V6,birds,Patricia ,358010RM5FHOZ5X4JRQ5084UZNBXV6,canary,yes,Please label the pictures below.,NA,NA,21,NA,,warmup/swan.jpg,"bird\nbirds",some_college,A2ETXCA9X5P484,english,male,NA,birds,NA,3,1566831278478,7,NA,This is a ,3,These are both,NA,canary,warmup1
406,swan,Mon Aug 26 2019 10:54:38 GMT-0400 (Eastern Daylight Time),NA,10,warmup/canary.jpg,swan,This is a ,,1,3DW3BNF1GH6VXKY3LH9BWPRDJCA8V6,birds,Patricia ,358010RM5FHOZ5X4JRQ5084UZNBXV6,canary,yes,Please label the pictures below.,NA,NA,21,NA,,warmup/swan.jpg,"bird\nbirds",some_college,A2ETXCA9X5P484,english,male,NA,birds,NA,3,1566831278478,8,NA,This is a ,3,These are both,NA,canary,warmup1
406,swan,Mon Aug 26 2019 10:54:38 GMT-0400 (Eastern Daylight Time),NA,10,warmup/canary.jpg,swan,This is a ,,1,3DW3BNF1GH6VXKY3LH9BWPRDJCA8V6,birds,Patricia ,358010RM5FHOZ5X4JRQ5084UZNBXV6,canary,yes,Please label the pictures below.,NA,NA,21,NA,,warmup/swan.jpg,"bird\nbirds",some_college,A2ETXCA9X5P484,english,male,NA,birds,NA,3,1566831278478,9,NA,This is a ,3,These are both,NA,canary,warmup1
406,swan,Mon Aug 26 2019 10:54:38 GMT-0400 (Eastern Daylight Time),NA,10,warmup/canary.jpg,swan,This is a ,,1,3DW3BNF1GH6VXKY3LH9BWPRDJCA8V6,birds,Patricia ,358010RM5FHOZ5X4JRQ5084UZNBXV6,canary,yes,Please label the pictures below.,NA,NA,21,NA,,warmup/swan.jpg,"bird\nbirds",some_college,A2ETXCA9X5P484,english,male,NA,birds,NA,3,1566831278478,10,NA,This is a ,3,These are both,NA,canary,warmup1
406,swan,Mon Aug 26 2019 10:54:38 GMT-0400 (Eastern Daylight Time),NA,10,warmup/canary.jpg,swan,This is a ,,1,3DW3BNF1GH6VXKY3LH9BWPRDJCA8V6,birds,Patricia ,358010RM5FHOZ5X4JRQ5084UZNBXV6,canary,yes,Please label the pictures below.,NA,NA,21,NA,,warmup/swan.jpg,"bird\nbirds",some_college,A2ETXCA9X5P484,english,male,NA,birds,NA,3,1566831278478,11,NA,This is a ,3,These are both,NA,canary,warmup1
406,swan,Mon Aug 26 2019 10:54:38 GMT-0400 (Eastern Daylight Time),NA,10,warmup/canary.jpg,swan,This is a ,,1,3DW3BNF1GH6VXKY3LH9BWPRDJCA8V6,birds,Patricia ,358010RM5FHOZ5X4JRQ5084UZNBXV6,canary,yes,Please label the pictures below.,NA,NA,21,NA,,warmup/swan.jpg,birds,some_college,A2ETXCA9X5P484,english,male,NA,birds,NA,3,1566831278478,12,NA,This is a ,3,These are both,NA,canary,warmup1
406,NA,Mon Aug 26 2019 10:54:38 GMT-0400 (Eastern Daylight Time),images/bird-parade2.png,10,NA,NA,That's a small ,,1,3DW3BNF1GH6VXKY3LH9BWPRDJCA8V6,birds,Patricia ,358010RM5FHOZ5X4JRQ5084UZNBXV6,NA,yes,This one is also in the parade.,prenominal,You say to your friend:,21,bird,,NA,NA,some_college,A2ETXCA9X5P484,english,male,,NA,You see a parade of animals.,1,1566831278478,NA,images/hummingbird.png,NA,3,,small,NA,main1
406,NA,Mon Aug 26 2019 10:54:38 GMT-0400 (Eastern Daylight Time),images/fish-parade2.png,10,NA,NA,That's a big ,,1,3DW3BNF1GH6VXKY3LH9BWPRDJCA8V6,fish,Patricia ,358010RM5FHOZ5X4JRQ5084UZNBXV6,NA,yes,This one is also in the parade.,prenominal,You say to your friend:,21,fish,,NA,NA,some_college,A2ETXCA9X5P484,english,male,,NA,You see a parade of animals.,2,1566831278478,NA,images/tuna.png,NA,3,,big,NA,main1
406,NA,Mon Aug 26 2019 10:54:38 GMT-0400 (Eastern Daylight Time),images/bird-parade3.png,10,NA,NA,That's a big ,,1,3DW3BNF1GH6VXKY3LH9BWPRDJCA8V6,birds,Patricia ,358010RM5FHOZ5X4JRQ5084UZNBXV6,NA,yes,This one is also in the parade.,prenominal,You say to your friend:,21,bird,,NA,NA,some_college,A2ETXCA9X5P484,english,male,,NA,You see a parade of animals.,3,1566831278478,NA,images/swan.png,NA,3,,big,NA,main1
406,duck,Mon Aug 26 2019 10:54:38 GMT-0400 (Eastern Daylight Time),NA,10,warmup/sparrow.jpg,goose,This is a ,,1,3DW3BNF1GH6VXKY3LH9BWPRDJCA8V6,birds,Patricia ,358010RM5FHOZ5X4JRQ5084UZNBXV6,sparrow,yes,Please label the pictures below.,NA,NA,21,NA,,warmup/goose.png,birds,some_college,A2ETXCA9X5P484,english,male,NA,birds,NA,1,1566831278478,1,NA,This is a ,3,These are both,NA,bird,warmup2
406,goose,Mon Aug 26 2019 10:54:38 GMT-0400 (Eastern Daylight Time),NA,10,warmup/sparrow.jpg,goose,This is a ,,1,3DW3BNF1GH6VXKY3LH9BWPRDJCA8V6,birds,Patricia ,358010RM5FHOZ5X4JRQ5084UZNBXV6,sparrow,yes,Please label the pictures below.,NA,NA,21,NA,,warmup/goose.png,birds,some_college,A2ETXCA9X5P484,english,male,NA,birds,NA,1,1566831278478,2,NA,This is a ,3,These are both,NA,sparrow,warmup2
406,redwood,Mon Aug 26 2019 10:54:38 GMT-0400 (Eastern Daylight Time),NA,10,warmup/bonsai.jpg,redwood|sequoia,This is a ,,1,3DW3BNF1GH6VXKY3LH9BWPRDJCA8V6,trees,Patricia ,358010RM5FHOZ5X4JRQ5084UZNBXV6,bonsai,yes,Please label the pictures below.,NA,NA,21,NA,,warmup/sequoia.jpg,trees,some_college,A2ETXCA9X5P484,english,male,NA,trees,NA,2,1566831278478,1,NA,This is a ,3,These are both,NA,dfvsdfsdf,warmup2
406,redwood,Mon Aug 26 2019 10:54:38 GMT-0400 (Eastern Daylight Time),NA,10,warmup/bonsai.jpg,redwood|sequoia,This is a ,,1,3DW3BNF1GH6VXKY3LH9BWPRDJCA8V6,trees,Patricia ,358010RM5FHOZ5X4JRQ5084UZNBXV6,bonsai,yes,Please label the pictures below.,NA,NA,21,NA,,warmup/sequoia.jpg,trees,some_college,A2ETXCA9X5P484,english,male,NA,trees,NA,2,1566831278478,2,NA,This is a ,3,These are both,NA,bonsai,warmup2
406,dandelion,Mon Aug 26 2019 10:54:38 GMT-0400 (Eastern Daylight Time),NA,10,warmup/sunflower.png,dandelion,This is a ,,1,3DW3BNF1GH6VXKY3LH9BWPRDJCA8V6,flowers,Patricia ,358010RM5FHOZ5X4JRQ5084UZNBXV6,sunflower,yes,Please label the pictures below.,NA,NA,21,NA,,warmup/dandelion.jpg,flowers,some_college,A2ETXCA9X5P484,english,male,NA,flowers,NA,3,1566831278478,1,NA,This is a ,3,These are both,NA,sunflower,warmup2
406,NA,Mon Aug 26 2019 10:54:38 GMT-0400 (Eastern Daylight Time),images/tree-parade.png,10,NA,NA,That's a big ,,1,3DW3BNF1GH6VXKY3LH9BWPRDJCA8V6,trees,Patricia ,358010RM5FHOZ5X4JRQ5084UZNBXV6,NA,yes,This one is also in the landscape.,prenominal,You say to your friend:,21,tree,,NA,NA,some_college,A2ETXCA9X5P484,english,male,,NA,You see the following items in a landscape.,1,1566831278478,NA,images/sequoia.png,NA,3,,big,NA,main2
406,NA,Mon Aug 26 2019 10:54:38 GMT-0400 (Eastern Daylight Time),images/bird-parade.png,10,NA,NA,That's a small ,,1,3DW3BNF1GH6VXKY3LH9BWPRDJCA8V6,birds,Patricia ,358010RM5FHOZ5X4JRQ5084UZNBXV6,NA,yes,This one is also in the parade.,prenominal,You say to your friend:,21,bird,,NA,NA,some_college,A2ETXCA9X5P484,english,male,,NA,You see a parade of animals.,2,1566831278478,NA,images/sparrow.png,NA,3,,small,NA,main2
406,NA,Mon Aug 26 2019 10:54:38 GMT-0400 (Eastern Daylight Time),images/flower-parade2.png,10,NA,NA,That's a small ,,1,3DW3BNF1GH6VXKY3LH9BWPRDJCA8V6,flowers,Patricia ,358010RM5FHOZ5X4JRQ5084UZNBXV6,NA,yes,This one is also in the collection.,prenominal,You say to your friend:,21,plant,,NA,NA,some_college,A2ETXCA9X5P484,english,male,,NA,You see a collection of plants.,3,1566831278478,NA,images/dandelion.png,NA,3,,small,NA,main2
