submission_id,response1,context_picture,experiment_id,picture2,correct1,question1,problems,enjoyment,item,botresponse,correct2,understand,text,condition,sentence,age,response,comments,picture1,response3,education,languages,sex,RT,correct3,context,trial_number,startTime,attempts,picture,question3,fairprice,question2,size,response2,trial_name
344,dog,NA,10,warmup/doberman.png,chihuahua,This is a,No,1,dogs,margaret,doberman,yes,Please label the pictures below.,NA,NA,27,NA,NA,warmup/chihuahua.jpg,dogs,some_college,English,female,NA,dogs,NA,1,1566419319168,1,NA,This is a,1,These are both,NA,dog,warmup1
344,chihuahua,NA,10,warmup/doberman.png,chihuahua,This is a,No,1,dogs,margaret,doberman,yes,Please label the pictures below.,NA,NA,27,NA,NA,warmup/chihuahua.jpg,dogs,some_college,English,female,NA,dogs,NA,1,1566419319168,2,NA,This is a,1,These are both,NA,doberman,warmup1
344,carnation,NA,10,warmup/sunflower.png,dandelion,This is a,No,1,flowers,margaret,sunflower,yes,Please label the pictures below.,NA,NA,27,NA,NA,warmup/dandelion.jpg,flowers,some_college,English,female,NA,flowers,NA,2,1566419319168,1,NA,This is a,1,These are both,NA,sunflower,warmup1
344,dandelion,NA,10,warmup/sunflower.png,dandelion,This is a,No,1,flowers,margaret,sunflower,yes,Please label the pictures below.,NA,NA,27,NA,NA,warmup/dandelion.jpg,flowers,some_college,English,female,NA,flowers,NA,2,1566419319168,2,NA,This is a,1,These are both,NA,sunflower,warmup1
344,swan,NA,10,warmup/canary.jpg,swan,This is a,No,1,birds,margaret,canary,yes,Please label the pictures below.,NA,NA,27,NA,NA,warmup/swan.jpg,birds,some_college,English,female,NA,birds,NA,3,1566419319168,1,NA,This is a,1,These are both,NA,sparrow,warmup1
344,swan,NA,10,warmup/canary.jpg,swan,This is a,No,1,birds,margaret,canary,yes,Please label the pictures below.,NA,NA,27,NA,NA,warmup/swan.jpg,birds,some_college,English,female,NA,birds,NA,3,1566419319168,2,NA,This is a,1,These are both,NA,canary,warmup1
344,NA,images/bird-parade3.png,10,NA,NA,That's a big,No,1,birds,margaret,NA,yes,This one is also in the parade.,prenominal,You say to your friend:,27,swan,NA,NA,NA,some_college,English,female,NA,NA,You see a parade of animals.,1,1566419319168,NA,images/swan.png,NA,1,NA,big,NA,main1
344,NA,images/dog-parade.png,10,NA,NA,That's a small,No,1,dogs,margaret,NA,yes,This one is also in the parade.,prenominal,You say to your friend:,27,chihuahua,NA,NA,NA,some_college,English,female,NA,NA,You see a parade of animals.,2,1566419319168,NA,images/chihuahua.png,NA,1,NA,small,NA,main1
344,NA,images/flower-parade2.png,10,NA,NA,That's a big,No,1,flowers,margaret,NA,yes,This one is also in the collection.,prenominal,You say to your friend:,27,sunflower,NA,NA,NA,some_college,English,female,NA,NA,You see a collection of plants.,3,1566419319168,NA,images/sunflower.png,NA,1,NA,big,NA,main1
344,goose,NA,10,warmup/sparrow.jpg,goose,This is a,No,1,birds,margaret,sparrow,yes,Please label the pictures below.,NA,NA,27,NA,NA,warmup/goose.png,birds,some_college,English,female,NA,birds,NA,1,1566419319168,1,NA,This is a,1,These are both,NA,robin,warmup2
344,goose,NA,10,warmup/sparrow.jpg,goose,This is a,No,1,birds,margaret,sparrow,yes,Please label the pictures below.,NA,NA,27,NA,NA,warmup/goose.png,birds,some_college,English,female,NA,birds,NA,1,1566419319168,2,NA,This is a,1,These are both,NA,sparrow,warmup2
344,bass,NA,10,warmup/clownfish.jpg,tuna,This is a,No,1,fish,margaret,clownfish,yes,Please label the pictures below.,NA,NA,27,NA,NA,warmup/tuna.jpg,fish,some_college,English,female,NA,fish,NA,2,1566419319168,1,NA,This is a,1,These are both,NA,clown fish,warmup2
344,tuna,NA,10,warmup/clownfish.jpg,tuna,This is a,No,1,fish,margaret,clownfish,yes,Please label the pictures below.,NA,NA,27,NA,NA,warmup/tuna.jpg,fish,some_college,English,female,NA,fish,NA,2,1566419319168,2,NA,This is a,1,These are both,NA,clownfish,warmup2
344,swordfish,NA,10,warmup/goldfish.png,swordfish,This is a,No,1,fish,margaret,goldfish,yes,Please label the pictures below.,NA,NA,27,NA,NA,warmup/swordfish.jpg,fish,some_college,English,female,NA,fish,NA,3,1566419319168,1,NA,This is a,1,These are both,NA,fishy,warmup2
344,swordfish,NA,10,warmup/goldfish.png,swordfish,This is a,No,1,fish,margaret,goldfish,yes,Please label the pictures below.,NA,NA,27,NA,NA,warmup/swordfish.jpg,fish,some_college,English,female,NA,fish,NA,3,1566419319168,2,NA,This is a,1,These are both,NA,goldfish,warmup2
344,NA,images/fish-parade.png,10,NA,NA,That's a small,No,1,fish,margaret,NA,yes,This one is also in the parade.,prenominal,You say to your friend:,27,goldfish,NA,NA,NA,some_college,English,female,NA,NA,You see a parade of animals.,1,1566419319168,NA,images/goldfish.png,NA,1,NA,small,NA,main2
344,NA,images/fish-parade2.png,10,NA,NA,That's a small,No,1,fish,margaret,NA,yes,This one is also in the parade.,prenominal,You say to your friend:,27,clownfish,NA,NA,NA,some_college,English,female,NA,NA,You see a parade of animals.,2,1566419319168,NA,images/clownfish.png,NA,1,NA,small,NA,main2
344,NA,images/bird-parade.png,10,NA,NA,That's a big,No,1,birds,margaret,NA,yes,This one is also in the parade.,prenominal,You say to your friend:,27,goose,NA,NA,NA,some_college,English,female,NA,NA,You see a parade of animals.,3,1566419319168,NA,images/goose.png,NA,1,NA,big,NA,main2
343,dog,NA,10,warmup/great-dane.jpg,pug,This is a,no,1,dogs,Jennifer,great dane,yes,Please label the pictures below.,NA,NA,36,NA,no,warmup/pug.jpg,dogs,higher_degree,English,male,NA,dogs,NA,1,1566418111462,1,NA,This is a,1,These are both,NA,dog,warmup1
343,pug,NA,10,warmup/great-dane.jpg,pug,This is a,no,1,dogs,Jennifer,great dane,yes,Please label the pictures below.,NA,NA,36,NA,no,warmup/pug.jpg,dogs,higher_degree,English,male,NA,dogs,NA,1,1566418111462,2,NA,This is a,1,These are both,NA,great daen,warmup1
343,pug,NA,10,warmup/great-dane.jpg,pug,This is a,no,1,dogs,Jennifer,great dane,yes,Please label the pictures below.,NA,NA,36,NA,no,warmup/pug.jpg,dogs,higher_degree,English,male,NA,dogs,NA,1,1566418111462,3,NA,This is a,1,These are both,NA,great dane,warmup1
343,tilapia,NA,10,warmup/clownfish.jpg,tuna,This is a,no,1,fish,Jennifer,clownfish,yes,Please label the pictures below.,NA,NA,36,NA,no,warmup/tuna.jpg,fishs,higher_degree,English,male,NA,fish,NA,2,1566418111462,1,NA,This is a,1,These are both,NA,electric fish,warmup1
343,tuna,NA,10,warmup/clownfish.jpg,tuna,This is a,no,1,fish,Jennifer,clownfish,yes,Please label the pictures below.,NA,NA,36,NA,no,warmup/tuna.jpg,fish,higher_degree,English,male,NA,fish,NA,2,1566418111462,2,NA,This is a,1,These are both,NA,clownfish,warmup1
343,puppy,NA,10,warmup/doberman.png,chihuahua,This is a,no,1,dogs,Jennifer,doberman,yes,Please label the pictures below.,NA,NA,36,NA,no,warmup/chihuahua.jpg,dogs,higher_degree,English,male,NA,dogs,NA,3,1566418111462,1,NA,This is a,1,These are both,NA,dog,warmup1
343,chihuahua,NA,10,warmup/doberman.png,chihuahua,This is a,no,1,dogs,Jennifer,doberman,yes,Please label the pictures below.,NA,NA,36,NA,no,warmup/chihuahua.jpg,dogs,higher_degree,English,male,NA,dogs,NA,3,1566418111462,2,NA,This is a,1,These are both,NA,doberman,warmup1
343,NA,images/fish-parade2.png,10,NA,NA,That's a small,no,1,fish,Jennifer,NA,yes,This one is also in the parade.,prenominal,You say to your friend:,36,fish,no,NA,NA,higher_degree,English,male,NA,NA,You see a parade of animals.,1,1566418111462,NA,images/clownfish.png,NA,1,NA,small,NA,main1
343,NA,images/dog-parade.png,10,NA,NA,That's a big,no,1,dogs,Jennifer,NA,yes,This one is also in the parade.,prenominal,You say to your friend:,36,doberman,no,NA,NA,higher_degree,English,male,NA,NA,You see a parade of animals.,2,1566418111462,NA,images/doberman.png,NA,1,NA,big,NA,main1
343,NA,images/dog-parade2.png,10,NA,NA,That's a big,no,1,dogs,Jennifer,NA,yes,This one is also in the parade.,prenominal,You say to your friend:,36,dog,no,NA,NA,higher_degree,English,male,NA,NA,You see a parade of animals.,3,1566418111462,NA,images/great-dane.png,NA,1,NA,big,NA,main1
343,fish,NA,10,warmup/goldfish.png,swordfish,This is a,no,1,fish,Jennifer,goldfish,yes,Please label the pictures below.,NA,NA,36,NA,no,warmup/swordfish.jpg,fish,higher_degree,English,male,NA,fish,NA,1,1566418111462,1,NA,This is a,1,These are both,NA,fish,warmup2
343,swordfish,NA,10,warmup/goldfish.png,swordfish,This is a,no,1,fish,Jennifer,goldfish,yes,Please label the pictures below.,NA,NA,36,NA,no,warmup/swordfish.jpg,fish,higher_degree,English,male,NA,fish,NA,1,1566418111462,2,NA,This is a,1,These are both,NA,goldfish,warmup2
343,duck,NA,10,warmup/canary.jpg,swan,This is a,no,1,birds,Jennifer,canary,yes,Please label the pictures below.,NA,NA,36,NA,no,warmup/swan.jpg,bird,higher_degree,English,male,NA,birds,NA,2,1566418111462,1,NA,This is a,1,These are both,NA,bird,warmup2
343,swan,NA,10,warmup/canary.jpg,swan,This is a,no,1,birds,Jennifer,canary,yes,Please label the pictures below.,NA,NA,36,NA,no,warmup/swan.jpg,birds,higher_degree,English,male,NA,birds,NA,2,1566418111462,2,NA,This is a,1,These are both,NA,canary,warmup2
343,flower,NA,10,warmup/peony.png,daisy,This is a,no,1,flowers,Jennifer,peony,yes,Please label the pictures below.,NA,NA,36,NA,no,warmup/daisy.png,flowers,higher_degree,English,male,NA,flowers,NA,3,1566418111462,1,NA,This is a,1,These are both,NA,flower,warmup2
343,daisy,NA,10,warmup/peony.png,daisy,This is a,no,1,flowers,Jennifer,peony,yes,Please label the pictures below.,NA,NA,36,NA,no,warmup/daisy.png,flowers,higher_degree,English,male,NA,flowers,NA,3,1566418111462,2,NA,This is a,1,These are both,NA,peony,warmup2
343,NA,images/flower-parade.png,10,NA,NA,That's a small,no,1,flowers,Jennifer,NA,yes,This one is also in the collection.,prenominal,You say to your friend:,36,flowers,no,NA,NA,higher_degree,English,male,NA,NA,You see a collection of plants.,1,1566418111462,NA,images/daisy.png,NA,1,NA,small,NA,main2
343,NA,images/fish-parade.png,10,NA,NA,That's a big,no,1,fish,Jennifer,NA,yes,This one is also in the parade.,prenominal,You say to your friend:,36,swordfish,no,NA,NA,higher_degree,English,male,NA,NA,You see a parade of animals.,2,1566418111462,NA,images/swordfish.png,NA,1,NA,big,NA,main2
343,NA,images/bird-parade3.png,10,NA,NA,That's a small,no,1,birds,Jennifer,NA,yes,This one is also in the parade.,prenominal,You say to your friend:,36,canary,no,NA,NA,higher_degree,English,male,NA,NA,You see a parade of animals.,3,1566418111462,NA,images/canary.png,NA,1,NA,small,NA,main2
342,tree,NA,10,warmup/bonsai.jpg,redwood|sequoia,This is a,no,2,trees,susan,bonsai,yes,Please label the pictures below.,NA,NA,26,NA,NA,warmup/sequoia.jpg,trees,some_college,english,female,NA,trees,NA,1,1566417492188,1,NA,This is a,1,These are both,NA,tree,warmup1
342,redwood,NA,10,warmup/bonsai.jpg,redwood|sequoia,This is a,no,2,trees,susan,bonsai,yes,Please label the pictures below.,NA,NA,26,NA,NA,warmup/sequoia.jpg,trees,some_college,english,female,NA,trees,NA,1,1566417492188,2,NA,This is a,1,These are both,NA,bonsai,warmup1
342,chihauhau,NA,10,warmup/doberman.png,chihuahua,This is a,no,2,dogs,susan,doberman,yes,Please label the pictures below.,NA,NA,26,NA,NA,warmup/chihuahua.jpg,dogs,some_college,english,female,NA,dogs,NA,2,1566417492188,1,NA,This is a,1,These are both,NA,doberman,warmup1
342,chihuahua,NA,10,warmup/doberman.png,chihuahua,This is a,no,2,dogs,susan,doberman,yes,Please label the pictures below.,NA,NA,26,NA,NA,warmup/chihuahua.jpg,dogs,some_college,english,female,NA,dogs,NA,2,1566417492188,2,NA,This is a,1,These are both,NA,doberman,warmup1
342,dove,NA,10,warmup/canary.jpg,swan,This is a,no,2,birds,susan,canary,yes,Please label the pictures below.,NA,NA,26,NA,NA,warmup/swan.jpg,birds,some_college,english,female,NA,birds,NA,3,1566417492188,1,NA,This is a,1,These are both,NA,canary,warmup1
342,swan,NA,10,warmup/canary.jpg,swan,This is a,no,2,birds,susan,canary,yes,Please label the pictures below.,NA,NA,26,NA,NA,warmup/swan.jpg,birds,some_college,english,female,NA,birds,NA,3,1566417492188,2,NA,This is a,1,These are both,NA,canary,warmup1
342,NA,images/dog-parade.png,10,NA,NA,That's a big,no,2,dogs,susan,NA,yes,This one is also in the parade.,prenominal,You say to your friend:,26,doberman,NA,NA,NA,some_college,english,female,NA,NA,You see a parade of animals.,1,1566417492188,NA,images/doberman.png,NA,1,NA,big,NA,main1
342,NA,images/bird-parade3.png,10,NA,NA,That's a small,no,2,birds,susan,NA,yes,This one is also in the parade.,prenominal,You say to your friend:,26,canary,NA,NA,NA,some_college,english,female,NA,NA,You see a parade of animals.,2,1566417492188,NA,images/canary.png,NA,1,NA,small,NA,main1
342,NA,images/tree-parade.png,10,NA,NA,That's a big,no,2,trees,susan,NA,yes,This one is also in the landscape.,prenominal,You say to your friend:,26,redwood,NA,NA,NA,some_college,english,female,NA,NA,You see the following items in a landscape.,3,1566417492188,NA,images/sequoia.png,NA,1,NA,big,NA,main1
342,tuna,NA,10,warmup/clownfish.jpg,tuna,This is a,no,2,fish,susan,clownfish,yes,Please label the pictures below.,NA,NA,26,NA,NA,warmup/tuna.jpg,fish,some_college,english,female,NA,fish,NA,1,1566417492188,1,NA,This is a,1,These are both,NA,clown fish,warmup2
342,tuna,NA,10,warmup/clownfish.jpg,tuna,This is a,no,2,fish,susan,clownfish,yes,Please label the pictures below.,NA,NA,26,NA,NA,warmup/tuna.jpg,fish,some_college,english,female,NA,fish,NA,1,1566417492188,2,NA,This is a,1,These are both,NA,clownfish,warmup2
342,carnation,NA,10,warmup/peony.png,daisy,This is a,no,2,flowers,susan,peony,yes,Please label the pictures below.,NA,NA,26,NA,NA,warmup/daisy.png,flowers,some_college,english,female,NA,flowers,NA,2,1566417492188,1,NA,This is a,1,These are both,NA,rose,warmup2
342,daisy,NA,10,warmup/peony.png,daisy,This is a,no,2,flowers,susan,peony,yes,Please label the pictures below.,NA,NA,26,NA,NA,warmup/daisy.png,flowers,some_college,english,female,NA,flowers,NA,2,1566417492188,2,NA,This is a,1,These are both,NA,peony,warmup2
342,goose,NA,10,warmup/sparrow.jpg,goose,This is a,no,2,birds,susan,sparrow,yes,Please label the pictures below.,NA,NA,26,NA,NA,warmup/goose.png,birds,some_college,english,female,NA,birds,NA,3,1566417492188,1,NA,This is a,1,These are both,NA,sparrow,warmup2
342,NA,images/bird-parade.png,10,NA,NA,That's a big,no,2,birds,susan,NA,yes,This one is also in the parade.,prenominal,You say to your friend:,26,goose,NA,NA,NA,some_college,english,female,NA,NA,You see a parade of animals.,1,1566417492188,NA,images/goose.png,NA,1,NA,big,NA,main2
342,NA,images/flower-parade.png,10,NA,NA,That's a small,no,2,flowers,susan,NA,yes,This one is also in the collection.,prenominal,You say to your friend:,26,daisy,NA,NA,NA,some_college,english,female,NA,NA,You see a collection of plants.,2,1566417492188,NA,images/daisy.png,NA,1,NA,small,NA,main2
342,NA,images/fish-parade2.png,10,NA,NA,That's a small,no,2,fish,susan,NA,yes,This one is also in the parade.,prenominal,You say to your friend:,26,clownfish,NA,NA,NA,some_college,english,female,NA,NA,You see a parade of animals.,3,1566417492188,NA,images/clownfish.png,NA,1,NA,small,NA,main2
340,hummnig bird,NA,10,warmup/eagle.jpg,hummingbird,This is a,no,1,birds,elizabeth,eagle,yes,Please label the pictures below.,NA,NA,53,NA,NA,warmup/colibri.jpg,birds,graduated_college,English,male,NA,birds,NA,1,1566417535323,1,NA,This is an,1,These are both,NA,eagle,warmup1
340,hummnigbird,NA,10,warmup/eagle.jpg,hummingbird,This is a,no,1,birds,elizabeth,eagle,yes,Please label the pictures below.,NA,NA,53,NA,NA,warmup/colibri.jpg,birds,graduated_college,English,male,NA,birds,NA,1,1566417535323,2,NA,This is an,1,These are both,NA,eagle,warmup1
340,hummnigbird,NA,10,warmup/eagle.jpg,hummingbird,This is a,no,1,birds,elizabeth,eagle,yes,Please label the pictures below.,NA,NA,53,NA,NA,warmup/colibri.jpg,birds,graduated_college,English,male,NA,birds,NA,1,1566417535323,3,NA,This is an,1,These are both,NA,eagle,warmup1
340,hummingbird,NA,10,warmup/eagle.jpg,hummingbird,This is a,no,1,birds,elizabeth,eagle,yes,Please label the pictures below.,NA,NA,53,NA,NA,warmup/colibri.jpg,birds,graduated_college,English,male,NA,birds,NA,1,1566417535323,4,NA,This is an,1,These are both,NA,eagle,warmup1
340,daisy,NA,10,warmup/sunflower.png,dandelion,This is a,no,1,flowers,elizabeth,sunflower,yes,Please label the pictures below.,NA,NA,53,NA,NA,warmup/dandelion.jpg,flowers,graduated_college,English,male,NA,flowers,NA,2,1566417535323,1,NA,This is a,1,These are both,NA,sunflower,warmup1
340,dandelion,NA,10,warmup/sunflower.png,dandelion,This is a,no,1,flowers,elizabeth,sunflower,yes,Please label the pictures below.,NA,NA,53,NA,NA,warmup/dandelion.jpg,flowers,graduated_college,English,male,NA,flowers,NA,2,1566417535323,2,NA,This is a,1,These are both,NA,sunflower,warmup1
340,swan,NA,10,warmup/canary.jpg,swan,This is a,no,1,birds,elizabeth,canary,yes,Please label the pictures below.,NA,NA,53,NA,NA,warmup/swan.jpg,birds,graduated_college,English,male,NA,birds,NA,3,1566417535323,1,NA,This is a,1,These are both,NA,canary,warmup1
340,NA,images/bird-parade2.png,10,NA,NA,That's a big,no,1,birds,elizabeth,NA,yes,This one is also in the parade.,prenominal,You say to your friend:,53,bird,NA,NA,NA,graduated_college,English,male,NA,NA,You see a parade of animals.,1,1566417535323,NA,images/eagle.png,NA,1,NA,big,NA,main1
340,NA,images/flower-parade2.png,10,NA,NA,That's a small,no,1,flowers,elizabeth,NA,yes,This one is also in the collection.,prenominal,You say to your friend:,53,flower,NA,NA,NA,graduated_college,English,male,NA,NA,You see a collection of plants.,2,1566417535323,NA,images/dandelion.png,NA,1,NA,small,NA,main1
340,NA,images/bird-parade3.png,10,NA,NA,That's a small,no,1,birds,elizabeth,NA,yes,This one is also in the parade.,prenominal,You say to your friend:,53,bird,NA,NA,NA,graduated_college,English,male,NA,NA,You see a parade of animals.,3,1566417535323,NA,images/canary.png,NA,1,NA,small,NA,main1
340,goose,NA,10,warmup/sparrow.jpg,goose,This is a,no,1,birds,elizabeth,sparrow,yes,Please label the pictures below.,NA,NA,53,NA,NA,warmup/goose.png,birds,graduated_college,English,male,NA,birds,NA,1,1566417535323,1,NA,This is a,1,These are both,NA,sparrow,warmup2
340,danilion,NA,10,warmup/peony.png,daisy,This is a,no,1,flowers,elizabeth,peony,yes,Please label the pictures below.,NA,NA,53,NA,NA,warmup/daisy.png,flowers,graduated_college,English,male,NA,flowers,NA,2,1566417535323,1,NA,This is a,1,These are both,NA,flower,warmup2
340,daisy,NA,10,warmup/peony.png,daisy,This is a,no,1,flowers,elizabeth,peony,yes,Please label the pictures below.,NA,NA,53,NA,NA,warmup/daisy.png,flowers,graduated_college,English,male,NA,flowers,NA,2,1566417535323,2,NA,This is a,1,These are both,NA,peony,warmup2
340,swordfish,NA,10,warmup/goldfish.png,swordfish,This is a,no,1,fish,elizabeth,goldfish,yes,Please label the pictures below.,NA,NA,53,NA,NA,warmup/swordfish.jpg,fish,graduated_college,English,male,NA,fish,NA,3,1566417535323,1,NA,This is a,1,These are both,NA,goldfish,warmup2
340,NA,images/fish-parade.png,10,NA,NA,That's a big,no,1,fish,elizabeth,NA,yes,This one is also in the parade.,prenominal,You say to your friend:,53,fish,NA,NA,NA,graduated_college,English,male,NA,NA,You see a parade of animals.,1,1566417535323,NA,images/swordfish.png,NA,1,NA,big,NA,main2
340,NA,images/bird-parade.png,10,NA,NA,That's a small,no,1,birds,elizabeth,NA,yes,This one is also in the parade.,prenominal,You say to your friend:,53,bird,NA,NA,NA,graduated_college,English,male,NA,NA,You see a parade of animals.,2,1566417535323,NA,images/sparrow.png,NA,1,NA,small,NA,main2
340,NA,images/flower-parade.png,10,NA,NA,That's a big,no,1,flowers,elizabeth,NA,yes,This one is also in the collection.,prenominal,You say to your friend:,53,flowers,NA,NA,NA,graduated_college,English,male,NA,NA,You see a collection of plants.,3,1566417535323,NA,images/peony.png,NA,1,NA,big,NA,main2
339,Chihuahua,NA,10,warmup/doberman.png,chihuahua,This is a,No,1,dogs,linda,doberman,yes,Please label the pictures below.,NA,NA,28,NA,It was good to complete this study.,warmup/chihuahua.jpg,dog,graduated_college,English,female,NA,dogs,NA,1,1566416577100,1,NA,This is a,2,These are both,NA,Dobermann,warmup1
339,Chihuahua,NA,10,warmup/doberman.png,chihuahua,This is a,No,1,dogs,linda,doberman,yes,Please label the pictures below.,NA,NA,28,NA,It was good to complete this study.,warmup/chihuahua.jpg,dogs,graduated_college,English,female,NA,dogs,NA,1,1566416577100,2,NA,This is a,2,These are both,NA,Dobermann,warmup1
339,Chihuahua,NA,10,warmup/doberman.png,chihuahua,This is a,No,1,dogs,linda,doberman,yes,Please label the pictures below.,NA,NA,28,NA,It was good to complete this study.,warmup/chihuahua.jpg,dogs,graduated_college,English,female,NA,dogs,NA,1,1566416577100,3,NA,This is a,2,These are both,NA,Doberman,warmup1
339,Sequoia,NA,10,warmup/bonsai.jpg,redwood|sequoia,This is a,No,1,trees,linda,bonsai,yes,Please label the pictures below.,NA,NA,28,NA,It was good to complete this study.,warmup/sequoia.jpg,trees,graduated_college,English,female,NA,trees,NA,2,1566416577100,1,NA,This is a,2,These are both,NA,Bonsai,warmup1
339,Goose,NA,10,warmup/sparrow.jpg,goose,This is a,No,1,birds,linda,sparrow,yes,Please label the pictures below.,NA,NA,28,NA,It was good to complete this study.,warmup/goose.png,birds,graduated_college,English,female,NA,birds,NA,3,1566416577100,1,NA,This is a,2,These are both,NA,sparrow,warmup1
339,NA,images/dog-parade.png,10,NA,NA,That's a big,No,1,dogs,linda,NA,yes,This one is also in the parade.,prenominal,You say to your friend:,28,dogs,It was good to complete this study.,NA,NA,graduated_college,English,female,NA,NA,You see a parade of animals.,1,1566416577100,NA,images/doberman.png,NA,2,NA,big,NA,main1
339,NA,images/tree-parade.png,10,NA,NA,That's a small,No,1,trees,linda,NA,yes,This one is also in the landscape.,prenominal,You say to your friend:,28,trees,It was good to complete this study.,NA,NA,graduated_college,English,female,NA,NA,You see the following items in a landscape.,2,1566416577100,NA,images/bonsai.png,NA,2,NA,small,NA,main1
339,NA,images/bird-parade.png,10,NA,NA,That's a big,No,1,birds,linda,NA,yes,This one is also in the parade.,prenominal,You say to your friend:,28,birds,It was good to complete this study.,NA,NA,graduated_college,English,female,NA,NA,You see a parade of animals.,3,1566416577100,NA,images/goose.png,NA,2,NA,big,NA,main1
339,flower,NA,10,warmup/sunflower.png,dandelion,This is a,No,1,flowers,linda,sunflower,yes,Please label the pictures below.,NA,NA,28,NA,It was good to complete this study.,warmup/dandelion.jpg,flowers,graduated_college,English,female,NA,flowers,NA,1,1566416577100,1,NA,This is a,2,These are both,NA,Dandelion,warmup2
339,dandelion,NA,10,warmup/sunflower.png,dandelion,This is a,No,1,flowers,linda,sunflower,yes,Please label the pictures below.,NA,NA,28,NA,It was good to complete this study.,warmup/dandelion.jpg,flowers,graduated_college,English,female,NA,flowers,NA,1,1566416577100,2,NA,This is a,2,These are both,NA,sunflower,warmup2
339,Anna's Hummingbird,NA,10,warmup/eagle.jpg,hummingbird,This is a,No,1,birds,linda,eagle,yes,Please label the pictures below.,NA,NA,28,NA,It was good to complete this study.,warmup/colibri.jpg,birds,graduated_college,English,female,NA,birds,NA,2,1566416577100,1,NA,This is an,2,These are both,NA,eagle,warmup2
339,hummingbird,NA,10,warmup/eagle.jpg,hummingbird,This is a,No,1,birds,linda,eagle,yes,Please label the pictures below.,NA,NA,28,NA,It was good to complete this study.,warmup/colibri.jpg,birds,graduated_college,English,female,NA,birds,NA,2,1566416577100,2,NA,This is an,2,These are both,NA,eagle,warmup2
339,tuna,NA,10,warmup/clownfish.jpg,tuna,This is a,No,1,fish,linda,clownfish,yes,Please label the pictures below.,NA,NA,28,NA,It was good to complete this study.,warmup/tuna.jpg,fishes,graduated_college,English,female,NA,fish,NA,3,1566416577100,1,NA,This is a,2,These are both,NA,Clownfish,warmup2
339,tuna,NA,10,warmup/clownfish.jpg,tuna,This is a,No,1,fish,linda,clownfish,yes,Please label the pictures below.,NA,NA,28,NA,It was good to complete this study.,warmup/tuna.jpg,fish,graduated_college,English,female,NA,fish,NA,3,1566416577100,2,NA,This is a,2,These are both,NA,Clownfish,warmup2
339,NA,images/bird-parade2.png,10,NA,NA,That's a small,No,1,birds,linda,NA,yes,This one is also in the parade.,prenominal,You say to your friend:,28,birds,It was good to complete this study.,NA,NA,graduated_college,English,female,NA,NA,You see a parade of animals.,1,1566416577100,NA,images/hummingbird.png,NA,2,NA,small,NA,main2
339,NA,images/flower-parade2.png,10,NA,NA,That's a big,No,1,flowers,linda,NA,yes,This one is also in the collection.,prenominal,You say to your friend:,28,flowers,It was good to complete this study.,NA,NA,graduated_college,English,female,NA,NA,You see a collection of plants.,2,1566416577100,NA,images/sunflower.png,NA,2,NA,big,NA,main2
339,NA,images/fish-parade2.png,10,NA,NA,That's a small,No,1,fish,linda,NA,yes,This one is also in the parade.,prenominal,You say to your friend:,28,fish,It was good to complete this study.,NA,NA,graduated_college,English,female,NA,NA,You see a parade of animals.,3,1566416577100,NA,images/clownfish.png,NA,2,NA,small,NA,main2
336,tuna,NA,10,warmup/clownfish.jpg,tuna,This is a,None,1,fish,Barbara,clownfish,yes,Please label the pictures below.,NA,NA,29,NA,None,warmup/tuna.jpg,fish,graduated_college,English,male,NA,fish,NA,1,1566416250538,1,NA,This is a,1,These are both,NA,clownfish,warmup1
336,swordfish,NA,10,warmup/goldfish.png,swordfish,This is a,None,1,fish,Barbara,goldfish,yes,Please label the pictures below.,NA,NA,29,NA,None,warmup/swordfish.jpg,fish,graduated_college,English,male,NA,fish,NA,2,1566416250538,1,NA,This is a,1,These are both,NA,goldfish,warmup1
336,chihuahua,NA,10,warmup/doberman.png,chihuahua,This is a,None,1,dogs,Barbara,doberman,yes,Please label the pictures below.,NA,NA,29,NA,None,warmup/chihuahua.jpg,dog,graduated_college,English,male,NA,dogs,NA,3,1566416250538,1,NA,This is a,1,These are both,NA,doberman,warmup1
336,chihuahua,NA,10,warmup/doberman.png,chihuahua,This is a,None,1,dogs,Barbara,doberman,yes,Please label the pictures below.,NA,NA,29,NA,None,warmup/chihuahua.jpg,dogs,graduated_college,English,male,NA,dogs,NA,3,1566416250538,2,NA,This is a,1,These are both,NA,doberman,warmup1
336,NA,images/fish-parade2.png,10,NA,NA,That's a big,None,1,fish,Barbara,NA,yes,This one is also in the parade.,prenominal,You say to your friend:,29,tuna,None,NA,NA,graduated_college,English,male,NA,NA,You see a parade of animals.,1,1566416250538,NA,images/tuna.png,NA,1,NA,big,NA,main1
336,NA,images/dog-parade.png,10,NA,NA,That's a small,None,1,dogs,Barbara,NA,yes,This one is also in the parade.,prenominal,You say to your friend:,29,chihuahua,None,NA,NA,graduated_college,English,male,NA,NA,You see a parade of animals.,2,1566416250538,NA,images/chihuahua.png,NA,1,NA,small,NA,main1
336,NA,images/fish-parade.png,10,NA,NA,That's a small,None,1,fish,Barbara,NA,yes,This one is also in the parade.,prenominal,You say to your friend:,29,goldfish,None,NA,NA,graduated_college,English,male,NA,NA,You see a parade of animals.,3,1566416250538,NA,images/goldfish.png,NA,1,NA,small,NA,main1
336,goose,NA,10,warmup/canary.jpg,swan,This is a,None,1,birds,Barbara,canary,yes,Please label the pictures below.,NA,NA,29,NA,None,warmup/swan.jpg,birds,graduated_college,English,male,NA,birds,NA,1,1566416250538,1,NA,This is a,1,These are both,NA,parakeet,warmup2
336,swan,NA,10,warmup/canary.jpg,swan,This is a,None,1,birds,Barbara,canary,yes,Please label the pictures below.,NA,NA,29,NA,None,warmup/swan.jpg,birds,graduated_college,English,male,NA,birds,NA,1,1566416250538,2,NA,This is a,1,These are both,NA,canary,warmup2
336,goose,NA,10,warmup/sparrow.jpg,goose,This is a,None,1,birds,Barbara,sparrow,yes,Please label the pictures below.,NA,NA,29,NA,None,warmup/goose.png,birds,graduated_college,English,male,NA,birds,NA,2,1566416250538,1,NA,This is a,1,These are both,NA,robin,warmup2
336,goose,NA,10,warmup/sparrow.jpg,goose,This is a,None,1,birds,Barbara,sparrow,yes,Please label the pictures below.,NA,NA,29,NA,None,warmup/goose.png,birds,graduated_college,English,male,NA,birds,NA,2,1566416250538,2,NA,This is a,1,These are both,NA,sparrow,warmup2
336,hummingbird,NA,10,warmup/eagle.jpg,hummingbird,This is a,None,1,birds,Barbara,eagle,yes,Please label the pictures below.,NA,NA,29,NA,None,warmup/colibri.jpg,birds,graduated_college,English,male,NA,birds,NA,3,1566416250538,1,NA,This is an,1,These are both,NA,eagle,warmup2
336,NA,images/bird-parade3.png,10,NA,NA,That's a big,None,1,birds,Barbara,NA,yes,This one is also in the parade.,prenominal,You say to your friend:,29,swan,None,NA,NA,graduated_college,English,male,NA,NA,You see a parade of animals.,1,1566416250538,NA,images/swan.png,NA,1,NA,big,NA,main2
336,NA,images/bird-parade.png,10,NA,NA,That's a big,None,1,birds,Barbara,NA,yes,This one is also in the parade.,prenominal,You say to your friend:,29,goose,None,NA,NA,graduated_college,English,male,NA,NA,You see a parade of animals.,2,1566416250538,NA,images/goose.png,NA,1,NA,big,NA,main2
336,NA,images/bird-parade2.png,10,NA,NA,That's a small,None,1,birds,Barbara,NA,yes,This one is also in the parade.,prenominal,You say to your friend:,29,hummingbird,None,NA,NA,graduated_college,English,male,NA,NA,You see a parade of animals.,3,1566416250538,NA,images/hummingbird.png,NA,1,NA,small,NA,main2
335,Redwood,NA,10,warmup/bonsai.jpg,redwood|sequoia,This is a,"Nope, everything seemed to work fine.",1,trees,Linda,bonsai,yes,Please label the pictures below.,NA,NA,28,NA,"I *think* I did the experiment correctly, or at least I hope so.  I assume seeing the different way people choose to answer is the point?",warmup/sequoia.jpg,trees,graduated_high_school,English,male,NA,trees,NA,1,1566416188741,1,NA,This is a,1,These are both,NA,Bonsai,warmup1
335,swordfish,NA,10,warmup/goldfish.png,swordfish,This is a,"Nope, everything seemed to work fine.",1,fish,Linda,goldfish,yes,Please label the pictures below.,NA,NA,28,NA,"I *think* I did the experiment correctly, or at least I hope so.  I assume seeing the different way people choose to answer is the point?",warmup/swordfish.jpg,fish,graduated_high_school,English,male,NA,fish,NA,2,1566416188741,1,NA,This is a,1,These are both,NA,goldfish,warmup1
335,goose,NA,10,warmup/sparrow.jpg,goose,This is a,"Nope, everything seemed to work fine.",1,birds,Linda,sparrow,yes,Please label the pictures below.,NA,NA,28,NA,"I *think* I did the experiment correctly, or at least I hope so.  I assume seeing the different way people choose to answer is the point?",warmup/goose.png,birds,graduated_high_school,English,male,NA,birds,NA,3,1566416188741,1,NA,This is a,1,These are both,NA,sparrow,warmup1
335,NA,images/tree-parade.png,10,NA,NA,That's a small,"Nope, everything seemed to work fine.",1,trees,Linda,NA,yes,This one is also in the landscape.,prenominal,You say to your friend:,28,tree,"I *think* I did the experiment correctly, or at least I hope so.  I assume seeing the different way people choose to answer is the point?",NA,NA,graduated_high_school,English,male,NA,NA,You see the following items in a landscape.,1,1566416188741,NA,images/bonsai.png,NA,1,NA,small,NA,main1
335,NA,images/fish-parade.png,10,NA,NA,That's a big,"Nope, everything seemed to work fine.",1,fish,Linda,NA,yes,This one is also in the parade.,prenominal,You say to your friend:,28,swordfish,"I *think* I did the experiment correctly, or at least I hope so.  I assume seeing the different way people choose to answer is the point?",NA,NA,graduated_high_school,English,male,NA,NA,You see a parade of animals.,2,1566416188741,NA,images/swordfish.png,NA,1,NA,big,NA,main1
335,NA,images/bird-parade.png,10,NA,NA,That's a big,"Nope, everything seemed to work fine.",1,birds,Linda,NA,yes,This one is also in the parade.,prenominal,You say to your friend:,28,goose,"I *think* I did the experiment correctly, or at least I hope so.  I assume seeing the different way people choose to answer is the point?",NA,NA,graduated_high_school,English,male,NA,NA,You see a parade of animals.,3,1566416188741,NA,images/goose.png,NA,1,NA,big,NA,main1
335,pug,NA,10,warmup/great-dane.jpg,pug,This is a,"Nope, everything seemed to work fine.",1,dogs,Linda,great dane,yes,Please label the pictures below.,NA,NA,28,NA,"I *think* I did the experiment correctly, or at least I hope so.  I assume seeing the different way people choose to answer is the point?",warmup/pug.jpg,dogs,graduated_high_school,English,male,NA,dogs,NA,1,1566416188741,1,NA,This is a,1,These are both,NA,great dane,warmup2
335,swan,NA,10,warmup/canary.jpg,swan,This is a,"Nope, everything seemed to work fine.",1,birds,Linda,canary,yes,Please label the pictures below.,NA,NA,28,NA,"I *think* I did the experiment correctly, or at least I hope so.  I assume seeing the different way people choose to answer is the point?",warmup/swan.jpg,birds,graduated_high_school,English,male,NA,birds,NA,2,1566416188741,1,NA,This is a,1,These are both,NA,finch,warmup2
335,swan,NA,10,warmup/canary.jpg,swan,This is a,"Nope, everything seemed to work fine.",1,birds,Linda,canary,yes,Please label the pictures below.,NA,NA,28,NA,"I *think* I did the experiment correctly, or at least I hope so.  I assume seeing the different way people choose to answer is the point?",warmup/swan.jpg,birds,graduated_high_school,English,male,NA,birds,NA,2,1566416188741,2,NA,This is a,1,These are both,NA,canary,warmup2
335,dandelion,NA,10,warmup/sunflower.png,dandelion,This is a,"Nope, everything seemed to work fine.",1,flowers,Linda,sunflower,yes,Please label the pictures below.,NA,NA,28,NA,"I *think* I did the experiment correctly, or at least I hope so.  I assume seeing the different way people choose to answer is the point?",warmup/dandelion.jpg,flowers,graduated_high_school,English,male,NA,flowers,NA,3,1566416188741,1,NA,This is a,1,These are both,NA,sunflower,warmup2
335,NA,images/flower-parade2.png,10,NA,NA,That's a small,"Nope, everything seemed to work fine.",1,flowers,Linda,NA,yes,This one is also in the collection.,prenominal,You say to your friend:,28,dandelion,"I *think* I did the experiment correctly, or at least I hope so.  I assume seeing the different way people choose to answer is the point?",NA,NA,graduated_high_school,English,male,NA,NA,You see a collection of plants.,1,1566416188741,NA,images/dandelion.png,NA,1,NA,small,NA,main2
335,NA,images/bird-parade3.png,10,NA,NA,That's a big,"Nope, everything seemed to work fine.",1,birds,Linda,NA,yes,This one is also in the parade.,prenominal,You say to your friend:,28,swan,"I *think* I did the experiment correctly, or at least I hope so.  I assume seeing the different way people choose to answer is the point?",NA,NA,graduated_high_school,English,male,NA,NA,You see a parade of animals.,2,1566416188741,NA,images/swan.png,NA,1,NA,big,NA,main2
335,NA,images/dog-parade2.png,10,NA,NA,That's a small,"Nope, everything seemed to work fine.",1,dogs,Linda,NA,yes,This one is also in the parade.,prenominal,You say to your friend:,28,pug,"I *think* I did the experiment correctly, or at least I hope so.  I assume seeing the different way people choose to answer is the point?",NA,NA,graduated_high_school,English,male,NA,NA,You see a parade of animals.,3,1566416188741,NA,images/pug.png,NA,1,NA,small,NA,main2
333,little dog,NA,10,warmup/doberman.png,chihuahua,This is a,No,2,dogs,sarah,doberman,yes,Please label the pictures below.,NA,NA,41,NA,NA,warmup/chihuahua.jpg,dogs,some_high_school,English,female,NA,dogs,NA,1,1566415813796,1,NA,This is a,1,These are both,NA,big dog,warmup1
333,chihuahua,NA,10,warmup/doberman.png,chihuahua,This is a,No,2,dogs,sarah,doberman,yes,Please label the pictures below.,NA,NA,41,NA,NA,warmup/chihuahua.jpg,dogs,some_high_school,English,female,NA,dogs,NA,1,1566415813796,2,NA,This is a,1,These are both,NA,doberman,warmup1
333,pug,NA,10,warmup/great-dane.jpg,pug,This is a,No,2,dogs,sarah,great dane,yes,Please label the pictures below.,NA,NA,41,NA,NA,warmup/pug.jpg,dogs,some_high_school,English,female,NA,dogs,NA,2,1566415813796,1,NA,This is a,1,These are both,NA,dog,warmup1
333,pug,NA,10,warmup/great-dane.jpg,pug,This is a,No,2,dogs,sarah,great dane,yes,Please label the pictures below.,NA,NA,41,NA,NA,warmup/pug.jpg,dogs,some_high_school,English,female,NA,dogs,NA,2,1566415813796,2,NA,This is a,1,These are both,NA,great dane,warmup1
333,duck,NA,10,warmup/sparrow.jpg,goose,This is a,No,2,birds,sarah,sparrow,yes,Please label the pictures below.,NA,NA,41,NA,NA,warmup/goose.png,birds,some_high_school,English,female,NA,birds,NA,3,1566415813796,1,NA,This is a,1,These are both,NA,bird,warmup1
333,goose,NA,10,warmup/sparrow.jpg,goose,This is a,No,2,birds,sarah,sparrow,yes,Please label the pictures below.,NA,NA,41,NA,NA,warmup/goose.png,birds,some_high_school,English,female,NA,birds,NA,3,1566415813796,2,NA,This is a,1,These are both,NA,sparrow,warmup1
333,NA,images/dog-parade2.png,10,NA,NA,That's a big,No,2,dogs,sarah,NA,yes,This one is also in the parade.,prenominal,You say to your friend:,41,great dane,NA,NA,NA,some_high_school,English,female,NA,NA,You see a parade of animals.,1,1566415813796,NA,images/great-dane.png,NA,1,NA,big,NA,main1
333,NA,images/dog-parade.png,10,NA,NA,That's a small,No,2,dogs,sarah,NA,yes,This one is also in the parade.,prenominal,You say to your friend:,41,chihuahua,NA,NA,NA,some_high_school,English,female,NA,NA,You see a parade of animals.,2,1566415813796,NA,images/chihuahua.png,NA,1,NA,small,NA,main1
333,NA,images/bird-parade.png,10,NA,NA,That's a small,No,2,birds,sarah,NA,yes,This one is also in the parade.,prenominal,You say to your friend:,41,sparrow,NA,NA,NA,some_high_school,English,female,NA,NA,You see a parade of animals.,3,1566415813796,NA,images/sparrow.png,NA,1,NA,small,NA,main1
333,hummingbird,NA,10,warmup/eagle.jpg,hummingbird,This is a,No,2,birds,sarah,eagle,yes,Please label the pictures below.,NA,NA,41,NA,NA,warmup/colibri.jpg,birds,some_high_school,English,female,NA,birds,NA,1,1566415813796,1,NA,This is an,1,These are both,NA,eagle,warmup2
333,tarp,NA,10,warmup/clownfish.jpg,tuna,This is a,No,2,fish,sarah,clownfish,yes,Please label the pictures below.,NA,NA,41,NA,NA,warmup/tuna.jpg,fish,some_high_school,English,female,NA,fish,NA,2,1566415813796,1,NA,This is a,1,These are both,NA,clownfish,warmup2
333,tuna,NA,10,warmup/clownfish.jpg,tuna,This is a,No,2,fish,sarah,clownfish,yes,Please label the pictures below.,NA,NA,41,NA,NA,warmup/tuna.jpg,fish,some_high_school,English,female,NA,fish,NA,2,1566415813796,2,NA,This is a,1,These are both,NA,clownfish,warmup2
333,daisy,NA,10,warmup/sunflower.png,dandelion,This is a,No,2,flowers,sarah,sunflower,yes,Please label the pictures below.,NA,NA,41,NA,NA,warmup/dandelion.jpg,flowers,some_high_school,English,female,NA,flowers,NA,3,1566415813796,1,NA,This is a,1,These are both,NA,sunflower,warmup2
333,dandelion,NA,10,warmup/sunflower.png,dandelion,This is a,No,2,flowers,sarah,sunflower,yes,Please label the pictures below.,NA,NA,41,NA,NA,warmup/dandelion.jpg,flowers,some_high_school,English,female,NA,flowers,NA,3,1566415813796,2,NA,This is a,1,These are both,NA,sunflower,warmup2
333,NA,images/fish-parade2.png,10,NA,NA,That's a big,No,2,fish,sarah,NA,yes,This one is also in the parade.,prenominal,You say to your friend:,41,tuna,NA,NA,NA,some_high_school,English,female,NA,NA,You see a parade of animals.,1,1566415813796,NA,images/tuna.png,NA,1,NA,big,NA,main2
333,NA,images/flower-parade2.png,10,NA,NA,That's a small,No,2,flowers,sarah,NA,yes,This one is also in the collection.,prenominal,You say to your friend:,41,dandelion,NA,NA,NA,some_high_school,English,female,NA,NA,You see a collection of plants.,2,1566415813796,NA,images/dandelion.png,NA,1,NA,small,NA,main2
333,NA,images/bird-parade2.png,10,NA,NA,That's a big,No,2,birds,sarah,NA,yes,This one is also in the parade.,prenominal,You say to your friend:,41,eagle,NA,NA,NA,some_high_school,English,female,NA,NA,You see a parade of animals.,3,1566415813796,NA,images/eagle.png,NA,1,NA,big,NA,main2
332,swordfish,NA,10,warmup/goldfish.png,swordfish,This is a,No,2,fish,mary,goldfish,NA,Please label the pictures below.,NA,NA,NA,NA,This was fun and enjoyable thank you!,warmup/swordfish.jpg,fish,some_college,English,male,NA,fish,NA,1,1566415957400,1,NA,This is a,1,These are both,NA,goldfish,warmup1
332,dandelion,NA,10,warmup/sunflower.png,dandelion,This is a,No,2,flowers,mary,sunflower,NA,Please label the pictures below.,NA,NA,NA,NA,This was fun and enjoyable thank you!,warmup/dandelion.jpg,flowers,some_college,English,male,NA,flowers,NA,2,1566415957400,1,NA,This is a,1,These are both,NA,sunflower,warmup1
332,hummingbird,NA,10,warmup/eagle.jpg,hummingbird,This is a,No,2,birds,mary,eagle,NA,Please label the pictures below.,NA,NA,NA,NA,This was fun and enjoyable thank you!,warmup/colibri.jpg,bird,some_college,English,male,NA,birds,NA,3,1566415957400,1,NA,This is an,1,These are both,NA,eagle,warmup1
332,hummingbird,NA,10,warmup/eagle.jpg,hummingbird,This is a,No,2,birds,mary,eagle,NA,Please label the pictures below.,NA,NA,NA,NA,This was fun and enjoyable thank you!,warmup/colibri.jpg,birds,some_college,English,male,NA,birds,NA,3,1566415957400,2,NA,This is an,1,These are both,NA,eagle,warmup1
332,NA,images/fish-parade.png,10,NA,NA,That's a small,No,2,fish,mary,NA,NA,This one is also in the parade.,prenominal,You say to your friend:,NA,fish,This was fun and enjoyable thank you!,NA,NA,some_college,English,male,NA,NA,You see a parade of animals.,1,1566415957400,NA,images/goldfish.png,NA,1,NA,small,NA,main1
332,NA,images/flower-parade2.png,10,NA,NA,That's a big,No,2,flowers,mary,NA,NA,This one is also in the collection.,prenominal,You say to your friend:,NA,sunflower,This was fun and enjoyable thank you!,NA,NA,some_college,English,male,NA,NA,You see a collection of plants.,2,1566415957400,NA,images/sunflower.png,NA,1,NA,big,NA,main1
332,NA,images/bird-parade2.png,10,NA,NA,That's a big,No,2,birds,mary,NA,NA,This one is also in the parade.,prenominal,You say to your friend:,NA,eagle,This was fun and enjoyable thank you!,NA,NA,some_college,English,male,NA,NA,You see a parade of animals.,3,1566415957400,NA,images/eagle.png,NA,1,NA,big,NA,main1
332,goose,NA,10,warmup/sparrow.jpg,goose,This is a,No,2,birds,mary,sparrow,NA,Please label the pictures below.,NA,NA,NA,NA,This was fun and enjoyable thank you!,warmup/goose.png,birds,some_college,English,male,NA,birds,NA,1,1566415957400,1,NA,This is a,1,These are both,NA,bird,warmup2
332,goose,NA,10,warmup/sparrow.jpg,goose,This is a,No,2,birds,mary,sparrow,NA,Please label the pictures below.,NA,NA,NA,NA,This was fun and enjoyable thank you!,warmup/goose.png,birds,some_college,English,male,NA,birds,NA,1,1566415957400,2,NA,This is a,1,These are both,NA,sparrow,warmup2
332,flower,NA,10,warmup/peony.png,daisy,This is a,No,2,flowers,mary,peony,NA,Please label the pictures below.,NA,NA,NA,NA,This was fun and enjoyable thank you!,warmup/daisy.png,flowers,some_college,English,male,NA,flowers,NA,2,1566415957400,1,NA,This is a,1,These are both,NA,rose,warmup2
332,daisy,NA,10,warmup/peony.png,daisy,This is a,No,2,flowers,mary,peony,NA,Please label the pictures below.,NA,NA,NA,NA,This was fun and enjoyable thank you!,warmup/daisy.png,flowers,some_college,English,male,NA,flowers,NA,2,1566415957400,2,NA,This is a,1,These are both,NA,peony,warmup2
332,chiuahua,NA,10,warmup/doberman.png,chihuahua,This is a,No,2,dogs,mary,doberman,NA,Please label the pictures below.,NA,NA,NA,NA,This was fun and enjoyable thank you!,warmup/chihuahua.jpg,dogs,some_college,English,male,NA,dogs,NA,3,1566415957400,1,NA,This is a,1,These are both,NA,doberman,warmup2
332,chihuahua,NA,10,warmup/doberman.png,chihuahua,This is a,No,2,dogs,mary,doberman,NA,Please label the pictures below.,NA,NA,NA,NA,This was fun and enjoyable thank you!,warmup/chihuahua.jpg,dogs,some_college,English,male,NA,dogs,NA,3,1566415957400,2,NA,This is a,1,These are both,NA,doberman,warmup2
332,NA,images/bird-parade.png,10,NA,NA,That's a small,No,2,birds,mary,NA,NA,This one is also in the parade.,prenominal,You say to your friend:,NA,bird,This was fun and enjoyable thank you!,NA,NA,some_college,English,male,NA,NA,You see a parade of animals.,1,1566415957400,NA,images/sparrow.png,NA,1,NA,small,NA,main2
332,NA,images/flower-parade.png,10,NA,NA,That's a small,No,2,flowers,mary,NA,NA,This one is also in the collection.,prenominal,You say to your friend:,NA,flower,This was fun and enjoyable thank you!,NA,NA,some_college,English,male,NA,NA,You see a collection of plants.,2,1566415957400,NA,images/daisy.png,NA,1,NA,small,NA,main2
332,NA,images/dog-parade.png,10,NA,NA,That's a big,No,2,dogs,mary,NA,NA,This one is also in the parade.,prenominal,You say to your friend:,NA,doberman,This was fun and enjoyable thank you!,NA,NA,some_college,English,male,NA,NA,You see a parade of animals.,3,1566415957400,NA,images/doberman.png,NA,1,NA,big,NA,main2
331,dog,NA,10,warmup/doberman.png,chihuahua,This is a,"No, I had no issues whatsoever",1,dogs,patricia,doberman,yes,Please label the pictures below.,NA,NA,28,NA,NA,warmup/chihuahua.jpg,dogs,some_college,English,male,NA,dogs,NA,1,1566415784525,1,NA,This is a,1,These are both,NA,dog,warmup1
331,dog,NA,10,warmup/doberman.png,chihuahua,This is a,"No, I had no issues whatsoever",1,dogs,patricia,doberman,yes,Please label the pictures below.,NA,NA,28,NA,NA,warmup/chihuahua.jpg,dogs,some_college,English,male,NA,dogs,NA,1,1566415784525,2,NA,This is a,1,These are both,NA,dog,warmup1
331,chihuahua,NA,10,warmup/doberman.png,chihuahua,This is a,"No, I had no issues whatsoever",1,dogs,patricia,doberman,yes,Please label the pictures below.,NA,NA,28,NA,NA,warmup/chihuahua.jpg,dogs,some_college,English,male,NA,dogs,NA,1,1566415784525,3,NA,This is a,1,These are both,NA,doberman,warmup1
331,pug,NA,10,warmup/great-dane.jpg,pug,This is a,"No, I had no issues whatsoever",1,dogs,patricia,great dane,yes,Please label the pictures below.,NA,NA,28,NA,NA,warmup/pug.jpg,dogs,some_college,English,male,NA,dogs,NA,2,1566415784525,1,NA,This is a,1,These are both,NA,great dane,warmup1
331,hummingbird,NA,10,warmup/eagle.jpg,hummingbird,This is a,"No, I had no issues whatsoever",1,birds,patricia,eagle,yes,Please label the pictures below.,NA,NA,28,NA,NA,warmup/colibri.jpg,birds,some_college,English,male,NA,birds,NA,3,1566415784525,1,NA,This is an,1,These are both,NA,eagle,warmup1
331,NA,images/dog-parade.png,10,NA,NA,That's a big,"No, I had no issues whatsoever",1,dogs,patricia,NA,yes,This one is also in the parade.,prenominal,You say to your friend:,28,dog,NA,NA,NA,some_college,English,male,NA,NA,You see a parade of animals.,1,1566415784525,NA,images/doberman.png,NA,1,NA,big,NA,main1
331,NA,images/dog-parade2.png,10,NA,NA,That's a small,"No, I had no issues whatsoever",1,dogs,patricia,NA,yes,This one is also in the parade.,prenominal,You say to your friend:,28,dog,NA,NA,NA,some_college,English,male,NA,NA,You see a parade of animals.,2,1566415784525,NA,images/pug.png,NA,1,NA,small,NA,main1
331,NA,images/bird-parade2.png,10,NA,NA,That's a small,"No, I had no issues whatsoever",1,birds,patricia,NA,yes,This one is also in the parade.,prenominal,You say to your friend:,28,bird,NA,NA,NA,some_college,English,male,NA,NA,You see a parade of animals.,3,1566415784525,NA,images/hummingbird.png,NA,1,NA,small,NA,main1
331,oak,NA,10,warmup/bonsai.jpg,redwood|sequoia,This is a,"No, I had no issues whatsoever",1,trees,patricia,bonsai,yes,Please label the pictures below.,NA,NA,28,NA,NA,warmup/sequoia.jpg,trees,some_college,English,male,NA,trees,NA,1,1566415784525,1,NA,This is a,1,These are both,NA,sapling,warmup2
331,redwood,NA,10,warmup/bonsai.jpg,redwood|sequoia,This is a,"No, I had no issues whatsoever",1,trees,patricia,bonsai,yes,Please label the pictures below.,NA,NA,28,NA,NA,warmup/sequoia.jpg,trees,some_college,English,male,NA,trees,NA,1,1566415784525,2,NA,This is a,1,These are both,NA,bonsai,warmup2
331,swordfish,NA,10,warmup/goldfish.png,swordfish,This is a,"No, I had no issues whatsoever",1,fish,patricia,goldfish,yes,Please label the pictures below.,NA,NA,28,NA,NA,warmup/swordfish.jpg,fish,some_college,English,male,NA,fish,NA,2,1566415784525,1,NA,This is a,1,These are both,NA,goldfish,warmup2
331,swan,NA,10,warmup/canary.jpg,swan,This is a,"No, I had no issues whatsoever",1,birds,patricia,canary,yes,Please label the pictures below.,NA,NA,28,NA,NA,warmup/swan.jpg,birds,some_college,English,male,NA,birds,NA,3,1566415784525,1,NA,This is a,1,These are both,NA,canary,warmup2
331,NA,images/fish-parade.png,10,NA,NA,That's a big,"No, I had no issues whatsoever",1,fish,patricia,NA,yes,This one is also in the parade.,prenominal,You say to your friend:,28,fish,NA,NA,NA,some_college,English,male,NA,NA,You see a parade of animals.,1,1566415784525,NA,images/swordfish.png,NA,1,NA,big,NA,main2
331,NA,images/tree-parade.png,10,NA,NA,That's a small,"No, I had no issues whatsoever",1,trees,patricia,NA,yes,This one is also in the landscape.,prenominal,You say to your friend:,28,tree,NA,NA,NA,some_college,English,male,NA,NA,You see the following items in a landscape.,2,1566415784525,NA,images/bonsai.png,NA,1,NA,small,NA,main2
331,NA,images/bird-parade3.png,10,NA,NA,That's a big,"No, I had no issues whatsoever",1,birds,patricia,NA,yes,This one is also in the parade.,prenominal,You say to your friend:,28,bird,NA,NA,NA,some_college,English,male,NA,NA,You see a parade of animals.,3,1566415784525,NA,images/swan.png,NA,1,NA,big,NA,main2
329,goose,NA,10,warmup/sparrow.jpg,goose,This is a,No,1,birds,patricia,sparrow,yes,Please label the pictures below.,NA,NA,32,NA,N/A,warmup/goose.png,birds,graduated_college,English,male,NA,birds,NA,1,1566415258412,1,NA,This is a,2,These are both,NA,sparrow,warmup1
329,dandelion,NA,10,warmup/sunflower.png,dandelion,This is a,No,1,flowers,patricia,sunflower,yes,Please label the pictures below.,NA,NA,32,NA,N/A,warmup/dandelion.jpg,plants,graduated_college,English,male,NA,flowers,NA,2,1566415258412,1,NA,This is a,2,These are both,NA,sunflower,warmup1
329,dandelion,NA,10,warmup/sunflower.png,dandelion,This is a,No,1,flowers,patricia,sunflower,yes,Please label the pictures below.,NA,NA,32,NA,N/A,warmup/dandelion.jpg,flowers,graduated_college,English,male,NA,flowers,NA,2,1566415258412,2,NA,This is a,2,These are both,NA,sunflower,warmup1
329,swan,NA,10,warmup/canary.jpg,swan,This is a,No,1,birds,patricia,canary,yes,Please label the pictures below.,NA,NA,32,NA,N/A,warmup/swan.jpg,birds,graduated_college,English,male,NA,birds,NA,3,1566415258412,1,NA,This is a,2,These are both,NA,canary,warmup1
329,NA,images/bird-parade.png,10,NA,NA,That's a big,No,1,birds,patricia,NA,yes,This one is also in the parade.,prenominal,You say to your friend:,32,goose,N/A,NA,NA,graduated_college,English,male,NA,NA,You see a parade of animals.,1,1566415258412,NA,images/goose.png,NA,2,NA,big,NA,main1
329,NA,images/flower-parade2.png,10,NA,NA,That's a big,No,1,flowers,patricia,NA,yes,This one is also in the collection.,prenominal,You say to your friend:,32,sunflower,N/A,NA,NA,graduated_college,English,male,NA,NA,You see a collection of plants.,2,1566415258412,NA,images/sunflower.png,NA,2,NA,big,NA,main1
329,NA,images/bird-parade3.png,10,NA,NA,That's a small,No,1,birds,patricia,NA,yes,This one is also in the parade.,prenominal,You say to your friend:,32,canary,N/A,NA,NA,graduated_college,English,male,NA,NA,You see a parade of animals.,3,1566415258412,NA,images/canary.png,NA,2,NA,small,NA,main1
329,hummingbird,NA,10,warmup/eagle.jpg,hummingbird,This is a,No,1,birds,patricia,eagle,yes,Please label the pictures below.,NA,NA,32,NA,N/A,warmup/colibri.jpg,birds,graduated_college,English,male,NA,birds,NA,1,1566415258412,1,NA,This is an,2,These are both,NA,eagle,warmup2
329,daisy,NA,10,warmup/peony.png,daisy,This is a,No,1,flowers,patricia,peony,yes,Please label the pictures below.,NA,NA,32,NA,N/A,warmup/daisy.png,plants,graduated_college,English,male,NA,flowers,NA,2,1566415258412,1,NA,This is a,2,These are both,NA,peony,warmup2
329,daisy,NA,10,warmup/peony.png,daisy,This is a,No,1,flowers,patricia,peony,yes,Please label the pictures below.,NA,NA,32,NA,N/A,warmup/daisy.png,flowers,graduated_college,English,male,NA,flowers,NA,2,1566415258412,2,NA,This is a,2,These are both,NA,peony,warmup2
329,tuna,NA,10,warmup/clownfish.jpg,tuna,This is a,No,1,fish,patricia,clownfish,yes,Please label the pictures below.,NA,NA,32,NA,N/A,warmup/tuna.jpg,fish,graduated_college,English,male,NA,fish,NA,3,1566415258412,1,NA,This is a,2,These are both,NA,clownfish,warmup2
329,NA,images/fish-parade2.png,10,NA,NA,That's a small,No,1,fish,patricia,NA,yes,This one is also in the parade.,prenominal,You say to your friend:,32,clownfish,N/A,NA,NA,graduated_college,English,male,NA,NA,You see a parade of animals.,1,1566415258412,NA,images/clownfish.png,NA,2,NA,small,NA,main2
329,NA,images/flower-parade.png,10,NA,NA,That's a small,No,1,flowers,patricia,NA,yes,This one is also in the collection.,prenominal,You say to your friend:,32,daisy,N/A,NA,NA,graduated_college,English,male,NA,NA,You see a collection of plants.,2,1566415258412,NA,images/daisy.png,NA,2,NA,small,NA,main2
329,NA,images/bird-parade2.png,10,NA,NA,That's a big,No,1,birds,patricia,NA,yes,This one is also in the parade.,prenominal,You say to your friend:,32,eagle,N/A,NA,NA,graduated_college,English,male,NA,NA,You see a parade of animals.,3,1566415258412,NA,images/eagle.png,NA,2,NA,big,NA,main2
327,flower,NA,10,warmup/peony.png,daisy,This is a,no,2,flowers,elizabeth,peony,NA,Please label the pictures below.,NA,NA,53,NA,NA,warmup/daisy.png,flowers,graduated_college,english,male,NA,flowers,NA,1,1566415460191,1,NA,This is a,1,These are both,NA,flower,warmup1
327,flower,NA,10,warmup/peony.png,daisy,This is a,no,2,flowers,elizabeth,peony,NA,Please label the pictures below.,NA,NA,53,NA,NA,warmup/daisy.png,flowers,graduated_college,english,male,NA,flowers,NA,1,1566415460191,2,NA,This is a,1,These are both,NA,flower,warmup1
327,flower,NA,10,warmup/peony.png,daisy,This is a,no,2,flowers,elizabeth,peony,NA,Please label the pictures below.,NA,NA,53,NA,NA,warmup/daisy.png,flower,graduated_college,english,male,NA,flowers,NA,1,1566415460191,3,NA,This is a,1,These are both,NA,flower,warmup1
327,flower,NA,10,warmup/peony.png,daisy,This is a,no,2,flowers,elizabeth,peony,NA,Please label the pictures below.,NA,NA,53,NA,NA,warmup/daisy.png,flowers,graduated_college,english,male,NA,flowers,NA,1,1566415460191,4,NA,This is a,1,These are both,NA,flower,warmup1
327,flowers,NA,10,warmup/peony.png,daisy,This is a,no,2,flowers,elizabeth,peony,NA,Please label the pictures below.,NA,NA,53,NA,NA,warmup/daisy.png,flowers,graduated_college,english,male,NA,flowers,NA,1,1566415460191,5,NA,This is a,1,These are both,NA,flowers,warmup1
327,flowers,NA,10,warmup/peony.png,daisy,This is a,no,2,flowers,elizabeth,peony,NA,Please label the pictures below.,NA,NA,53,NA,NA,warmup/daisy.png,flowers,graduated_college,english,male,NA,flowers,NA,1,1566415460191,6,NA,This is a,1,These are both,NA,flowers,warmup1
327,flower,NA,10,warmup/peony.png,daisy,This is a,no,2,flowers,elizabeth,peony,NA,Please label the pictures below.,NA,NA,53,NA,NA,warmup/daisy.png,flowers,graduated_college,english,male,NA,flowers,NA,1,1566415460191,7,NA,This is a,1,These are both,NA,flower,warmup1
327,flower,NA,10,warmup/peony.png,daisy,This is a,no,2,flowers,elizabeth,peony,NA,Please label the pictures below.,NA,NA,53,NA,NA,warmup/daisy.png,flowers,graduated_college,english,male,NA,flowers,NA,1,1566415460191,8,NA,This is a,1,These are both,NA,flower,warmup1
327,daisy,NA,10,warmup/peony.png,daisy,This is a,no,2,flowers,elizabeth,peony,NA,Please label the pictures below.,NA,NA,53,NA,NA,warmup/daisy.png,flowers,graduated_college,english,male,NA,flowers,NA,1,1566415460191,9,NA,This is a,1,These are both,NA,peony,warmup1
327,swan,NA,10,warmup/canary.jpg,swan,This is a,no,2,birds,elizabeth,canary,NA,Please label the pictures below.,NA,NA,53,NA,NA,warmup/swan.jpg,birds,graduated_college,english,male,NA,birds,NA,2,1566415460191,1,NA,This is a,1,These are both,NA,canery,warmup1
327,swan,NA,10,warmup/canary.jpg,swan,This is a,no,2,birds,elizabeth,canary,NA,Please label the pictures below.,NA,NA,53,NA,NA,warmup/swan.jpg,birds,graduated_college,english,male,NA,birds,NA,2,1566415460191,2,NA,This is a,1,These are both,NA,canary,warmup1
327,pug,NA,10,warmup/great-dane.jpg,pug,This is a,no,2,dogs,elizabeth,great dane,NA,Please label the pictures below.,NA,NA,53,NA,NA,warmup/pug.jpg,dogs,graduated_college,english,male,NA,dogs,NA,3,1566415460191,1,NA,This is a,1,These are both,NA,great dane,warmup1
327,NA,images/bird-parade3.png,10,NA,NA,That's a small,no,2,birds,elizabeth,NA,NA,This one is also in the parade.,prenominal,You say to your friend:,53,canary,NA,NA,NA,graduated_college,english,male,NA,NA,You see a parade of animals.,1,1566415460191,NA,images/canary.png,NA,1,NA,small,NA,main1
327,NA,images/dog-parade2.png,10,NA,NA,That's a small,no,2,dogs,elizabeth,NA,NA,This one is also in the parade.,prenominal,You say to your friend:,53,pug,NA,NA,NA,graduated_college,english,male,NA,NA,You see a parade of animals.,2,1566415460191,NA,images/pug.png,NA,1,NA,small,NA,main1
327,NA,images/flower-parade.png,10,NA,NA,That's a small,no,2,flowers,elizabeth,NA,NA,This one is also in the collection.,prenominal,You say to your friend:,53,daisy,NA,NA,NA,graduated_college,english,male,NA,NA,You see a collection of plants.,3,1566415460191,NA,images/daisy.png,NA,1,NA,small,NA,main1
327,goose,NA,10,warmup/sparrow.jpg,goose,This is a,no,2,birds,elizabeth,sparrow,NA,Please label the pictures below.,NA,NA,53,NA,NA,warmup/goose.png,birds,graduated_college,english,male,NA,birds,NA,1,1566415460191,1,NA,This is a,1,These are both,NA,sparrow,warmup2
327,sword fish,NA,10,warmup/goldfish.png,swordfish,This is a,no,2,fish,elizabeth,goldfish,NA,Please label the pictures below.,NA,NA,53,NA,NA,warmup/swordfish.jpg,fish,graduated_college,english,male,NA,fish,NA,2,1566415460191,1,NA,This is a,1,These are both,NA,gold fish,warmup2
327,sword fish,NA,10,warmup/goldfish.png,swordfish,This is a,no,2,fish,elizabeth,goldfish,NA,Please label the pictures below.,NA,NA,53,NA,NA,warmup/swordfish.jpg,fish,graduated_college,english,male,NA,fish,NA,2,1566415460191,2,NA,This is a,1,These are both,NA,gold fish,warmup2
327,swordfish,NA,10,warmup/goldfish.png,swordfish,This is a,no,2,fish,elizabeth,goldfish,NA,Please label the pictures below.,NA,NA,53,NA,NA,warmup/swordfish.jpg,fish,graduated_college,english,male,NA,fish,NA,2,1566415460191,3,NA,This is a,1,These are both,NA,goldfish,warmup2
327,chiwowa,NA,10,warmup/doberman.png,chihuahua,This is a,no,2,dogs,elizabeth,doberman,NA,Please label the pictures below.,NA,NA,53,NA,NA,warmup/chihuahua.jpg,dogs,graduated_college,english,male,NA,dogs,NA,3,1566415460191,1,NA,This is a,1,These are both,NA,doberman,warmup2
327,chihuahua,NA,10,warmup/doberman.png,chihuahua,This is a,no,2,dogs,elizabeth,doberman,NA,Please label the pictures below.,NA,NA,53,NA,NA,warmup/chihuahua.jpg,dogs,graduated_college,english,male,NA,dogs,NA,3,1566415460191,2,NA,This is a,1,These are both,NA,doberman,warmup2
327,NA,images/bird-parade.png,10,NA,NA,That's a big,no,2,birds,elizabeth,NA,NA,This one is also in the parade.,prenominal,You say to your friend:,53,goose,NA,NA,NA,graduated_college,english,male,NA,NA,You see a parade of animals.,1,1566415460191,NA,images/goose.png,NA,1,NA,big,NA,main2
327,NA,images/fish-parade.png,10,NA,NA,That's a big,no,2,fish,elizabeth,NA,NA,This one is also in the parade.,prenominal,You say to your friend:,53,swordfish,NA,NA,NA,graduated_college,english,male,NA,NA,You see a parade of animals.,2,1566415460191,NA,images/swordfish.png,NA,1,NA,big,NA,main2
327,NA,images/dog-parade.png,10,NA,NA,That's a big,no,2,dogs,elizabeth,NA,NA,This one is also in the parade.,prenominal,You say to your friend:,53,doberman,NA,NA,NA,graduated_college,english,male,NA,NA,You see a parade of animals.,3,1566415460191,NA,images/doberman.png,NA,1,NA,big,NA,main2
326,hummingbird,NA,10,warmup/eagle.jpg,hummingbird,This is a,none,1,birds,jennifer,eagle,yes,Please label the pictures below.,NA,NA,53,NA,NA,warmup/colibri.jpg,birds,some_college,english,male,NA,birds,NA,1,1566415336262,1,NA,This is an,2,These are both,NA,eagle,warmup1
326,swan,NA,10,warmup/canary.jpg,swan,This is a,none,1,birds,jennifer,canary,yes,Please label the pictures below.,NA,NA,53,NA,NA,warmup/swan.jpg,birds,some_college,english,male,NA,birds,NA,2,1566415336262,1,NA,This is a,2,These are both,NA,canary,warmup1
326,pug,NA,10,warmup/great-dane.jpg,pug,This is a,none,1,dogs,jennifer,great dane,yes,Please label the pictures below.,NA,NA,53,NA,NA,warmup/pug.jpg,dogs,some_college,english,male,NA,dogs,NA,3,1566415336262,1,NA,This is a,2,These are both,NA,labrador,warmup1
326,pug,NA,10,warmup/great-dane.jpg,pug,This is a,none,1,dogs,jennifer,great dane,yes,Please label the pictures below.,NA,NA,53,NA,NA,warmup/pug.jpg,dogs,some_college,english,male,NA,dogs,NA,3,1566415336262,2,NA,This is a,2,These are both,NA,great dane,warmup1
326,NA,images/bird-parade3.png,10,NA,NA,That's a small,none,1,birds,jennifer,NA,yes,This one is also in the parade.,prenominal,You say to your friend:,53,bird,NA,NA,NA,some_college,english,male,NA,NA,You see a parade of animals.,1,1566415336262,NA,images/canary.png,NA,2,NA,small,NA,main1
326,NA,images/dog-parade2.png,10,NA,NA,That's a small,none,1,dogs,jennifer,NA,yes,This one is also in the parade.,prenominal,You say to your friend:,53,dog,NA,NA,NA,some_college,english,male,NA,NA,You see a parade of animals.,2,1566415336262,NA,images/pug.png,NA,2,NA,small,NA,main1
326,NA,images/bird-parade2.png,10,NA,NA,That's a big,none,1,birds,jennifer,NA,yes,This one is also in the parade.,prenominal,You say to your friend:,53,bird,NA,NA,NA,some_college,english,male,NA,NA,You see a parade of animals.,3,1566415336262,NA,images/eagle.png,NA,2,NA,big,NA,main1
326,cypress,NA,10,warmup/bonsai.jpg,redwood|sequoia,This is a,none,1,trees,jennifer,bonsai,yes,Please label the pictures below.,NA,NA,53,NA,NA,warmup/sequoia.jpg,trees,some_college,english,male,NA,trees,NA,1,1566415336262,1,NA,This is a,2,These are both,NA,bonsai,warmup2
326,redwood,NA,10,warmup/bonsai.jpg,redwood|sequoia,This is a,none,1,trees,jennifer,bonsai,yes,Please label the pictures below.,NA,NA,53,NA,NA,warmup/sequoia.jpg,trees,some_college,english,male,NA,trees,NA,1,1566415336262,2,NA,This is a,2,These are both,NA,bonsai,warmup2
326,tuna,NA,10,warmup/clownfish.jpg,tuna,This is a,none,1,fish,jennifer,clownfish,yes,Please label the pictures below.,NA,NA,53,NA,NA,warmup/tuna.jpg,fish,some_college,english,male,NA,fish,NA,2,1566415336262,1,NA,This is a,2,These are both,NA,nemo,warmup2
326,tuna,NA,10,warmup/clownfish.jpg,tuna,This is a,none,1,fish,jennifer,clownfish,yes,Please label the pictures below.,NA,NA,53,NA,NA,warmup/tuna.jpg,fish,some_college,english,male,NA,fish,NA,2,1566415336262,2,NA,This is a,2,These are both,NA,clownfish,warmup2
326,chihuahua,NA,10,warmup/doberman.png,chihuahua,This is a,none,1,dogs,jennifer,doberman,yes,Please label the pictures below.,NA,NA,53,NA,NA,warmup/chihuahua.jpg,dogs,some_college,english,male,NA,dogs,NA,3,1566415336262,1,NA,This is a,2,These are both,NA,doberman,warmup2
326,NA,images/dog-parade.png,10,NA,NA,That's a small,none,1,dogs,jennifer,NA,yes,This one is also in the parade.,prenominal,You say to your friend:,53,dog,NA,NA,NA,some_college,english,male,NA,NA,You see a parade of animals.,1,1566415336262,NA,images/chihuahua.png,NA,2,NA,small,NA,main2
326,NA,images/fish-parade2.png,10,NA,NA,That's a big,none,1,fish,jennifer,NA,yes,This one is also in the parade.,prenominal,You say to your friend:,53,fish,NA,NA,NA,some_college,english,male,NA,NA,You see a parade of animals.,2,1566415336262,NA,images/tuna.png,NA,2,NA,big,NA,main2
326,NA,images/tree-parade.png,10,NA,NA,That's a big,none,1,trees,jennifer,NA,yes,This one is also in the landscape.,prenominal,You say to your friend:,53,tree,NA,NA,NA,some_college,english,male,NA,NA,You see the following items in a landscape.,3,1566415336262,NA,images/sequoia.png,NA,2,NA,big,NA,main2
325,flower,NA,10,warmup/sunflower.png,dandelion,This is a,no,1,flowers,sarah,sunflower,yes,Please label the pictures below.,NA,NA,28,NA,everything was fine,warmup/dandelion.jpg,flower,graduated_high_school,english,male,NA,flowers,NA,1,1566415185105,1,NA,This is a,1,These are both,NA,flower,warmup1
325,dandelion,NA,10,warmup/sunflower.png,dandelion,This is a,no,1,flowers,sarah,sunflower,yes,Please label the pictures below.,NA,NA,28,NA,everything was fine,warmup/dandelion.jpg,flowers,graduated_high_school,english,male,NA,flowers,NA,1,1566415185105,2,NA,This is a,1,These are both,NA,sunflower,warmup1
325,goose,NA,10,warmup/canary.jpg,swan,This is a,no,1,birds,sarah,canary,yes,Please label the pictures below.,NA,NA,28,NA,everything was fine,warmup/swan.jpg,birds,graduated_high_school,english,male,NA,birds,NA,2,1566415185105,1,NA,This is a,1,These are both,NA,canary,warmup1
325,swan,NA,10,warmup/canary.jpg,swan,This is a,no,1,birds,sarah,canary,yes,Please label the pictures below.,NA,NA,28,NA,everything was fine,warmup/swan.jpg,birds,graduated_high_school,english,male,NA,birds,NA,2,1566415185105,2,NA,This is a,1,These are both,NA,canary,warmup1
325,pug,NA,10,warmup/great-dane.jpg,pug,This is a,no,1,dogs,sarah,great dane,yes,Please label the pictures below.,NA,NA,28,NA,everything was fine,warmup/pug.jpg,dogs,graduated_high_school,english,male,NA,dogs,NA,3,1566415185105,1,NA,This is a,1,These are both,NA,lab,warmup1
325,pug,NA,10,warmup/great-dane.jpg,pug,This is a,no,1,dogs,sarah,great dane,yes,Please label the pictures below.,NA,NA,28,NA,everything was fine,warmup/pug.jpg,dogs,graduated_high_school,english,male,NA,dogs,NA,3,1566415185105,2,NA,This is a,1,These are both,NA,great dane,warmup1
325,NA,images/bird-parade3.png,10,NA,NA,That's a big,no,1,birds,sarah,NA,yes,This one is also in the parade.,prenominal,You say to your friend:,28,swan,everything was fine,NA,NA,graduated_high_school,english,male,NA,NA,You see a parade of animals.,1,1566415185105,NA,images/swan.png,NA,1,NA,big,NA,main1
325,NA,images/dog-parade2.png,10,NA,NA,That's a big,no,1,dogs,sarah,NA,yes,This one is also in the parade.,prenominal,You say to your friend:,28,great dane,everything was fine,NA,NA,graduated_high_school,english,male,NA,NA,You see a parade of animals.,2,1566415185105,NA,images/great-dane.png,NA,1,NA,big,NA,main1
325,NA,images/flower-parade2.png,10,NA,NA,That's a big,no,1,flowers,sarah,NA,yes,This one is also in the collection.,prenominal,You say to your friend:,28,sunflower,everything was fine,NA,NA,graduated_high_school,english,male,NA,NA,You see a collection of plants.,3,1566415185105,NA,images/sunflower.png,NA,1,NA,big,NA,main1
325,oak tree,NA,10,warmup/bonsai.jpg,redwood|sequoia,This is a,no,1,trees,sarah,bonsai,yes,Please label the pictures below.,NA,NA,28,NA,everything was fine,warmup/sequoia.jpg,trees,graduated_high_school,english,male,NA,trees,NA,1,1566415185105,1,NA,This is a,1,These are both,NA,banzai tree,warmup2
325,redwood,NA,10,warmup/bonsai.jpg,redwood|sequoia,This is a,no,1,trees,sarah,bonsai,yes,Please label the pictures below.,NA,NA,28,NA,everything was fine,warmup/sequoia.jpg,trees,graduated_high_school,english,male,NA,trees,NA,1,1566415185105,2,NA,This is a,1,These are both,NA,bonsai,warmup2
325,duck,NA,10,warmup/sparrow.jpg,goose,This is a,no,1,birds,sarah,sparrow,yes,Please label the pictures below.,NA,NA,28,NA,everything was fine,warmup/goose.png,bird,graduated_high_school,english,male,NA,birds,NA,2,1566415185105,1,NA,This is a,1,These are both,NA,finch,warmup2
325,goose,NA,10,warmup/sparrow.jpg,goose,This is a,no,1,birds,sarah,sparrow,yes,Please label the pictures below.,NA,NA,28,NA,everything was fine,warmup/goose.png,birds,graduated_high_school,english,male,NA,birds,NA,2,1566415185105,2,NA,This is a,1,These are both,NA,sparrow,warmup2
325,chihuahua,NA,10,warmup/doberman.png,chihuahua,This is a,no,1,dogs,sarah,doberman,yes,Please label the pictures below.,NA,NA,28,NA,everything was fine,warmup/chihuahua.jpg,dogs,graduated_high_school,english,male,NA,dogs,NA,3,1566415185105,1,NA,This is a,1,These are both,NA,rott wheller,warmup2
325,chihuahua,NA,10,warmup/doberman.png,chihuahua,This is a,no,1,dogs,sarah,doberman,yes,Please label the pictures below.,NA,NA,28,NA,everything was fine,warmup/chihuahua.jpg,dogs,graduated_high_school,english,male,NA,dogs,NA,3,1566415185105,2,NA,This is a,1,These are both,NA,doberman,warmup2
325,NA,images/bird-parade.png,10,NA,NA,That's a small,no,1,birds,sarah,NA,yes,This one is also in the parade.,prenominal,You say to your friend:,28,sparrow,everything was fine,NA,NA,graduated_high_school,english,male,NA,NA,You see a parade of animals.,1,1566415185105,NA,images/sparrow.png,NA,1,NA,small,NA,main2
325,NA,images/tree-parade.png,10,NA,NA,That's a small,no,1,trees,sarah,NA,yes,This one is also in the landscape.,prenominal,You say to your friend:,28,bonsai,everything was fine,NA,NA,graduated_high_school,english,male,NA,NA,You see the following items in a landscape.,2,1566415185105,NA,images/bonsai.png,NA,1,NA,small,NA,main2
325,NA,images/dog-parade.png,10,NA,NA,That's a small,no,1,dogs,sarah,NA,yes,This one is also in the parade.,prenominal,You say to your friend:,28,chihuahua,everything was fine,NA,NA,graduated_high_school,english,male,NA,NA,You see a parade of animals.,3,1566415185105,NA,images/chihuahua.png,NA,1,NA,small,NA,main2
323,tree,NA,10,warmup/bonsai.jpg,redwood|sequoia,This is a,no,1,trees,susan,bonsai,NA,Please label the pictures below.,NA,NA,NA,NA,NA,warmup/sequoia.jpg,trees,some_college,english,NA,NA,trees,NA,1,1566414766824,1,NA,This is a,2,These are both,NA,tree,warmup1
323,tree,NA,10,warmup/bonsai.jpg,redwood|sequoia,This is a,no,1,trees,susan,bonsai,NA,Please label the pictures below.,NA,NA,NA,NA,NA,warmup/sequoia.jpg,trees,some_college,english,NA,NA,trees,NA,1,1566414766824,2,NA,This is a,2,These are both,NA,tree,warmup1
323,tree,NA,10,warmup/bonsai.jpg,redwood|sequoia,This is a,no,1,trees,susan,bonsai,NA,Please label the pictures below.,NA,NA,NA,NA,NA,warmup/sequoia.jpg,trees,some_college,english,NA,NA,trees,NA,1,1566414766824,3,NA,This is a,2,These are both,NA,bonsai,warmup1
323,tree,NA,10,warmup/bonsai.jpg,redwood|sequoia,This is a,no,1,trees,susan,bonsai,NA,Please label the pictures below.,NA,NA,NA,NA,NA,warmup/sequoia.jpg,trees,some_college,english,NA,NA,trees,NA,1,1566414766824,4,NA,This is a,2,These are both,NA,bonsai,warmup1
323,redwood,NA,10,warmup/bonsai.jpg,redwood|sequoia,This is a,no,1,trees,susan,bonsai,NA,Please label the pictures below.,NA,NA,NA,NA,NA,warmup/sequoia.jpg,trees,some_college,english,NA,NA,trees,NA,1,1566414766824,5,NA,This is a,2,These are both,NA,bonsai,warmup1
323,pug,NA,10,warmup/great-dane.jpg,pug,This is a,no,1,dogs,susan,great dane,NA,Please label the pictures below.,NA,NA,NA,NA,NA,warmup/pug.jpg,dogs,some_college,english,NA,NA,dogs,NA,2,1566414766824,1,NA,This is a,2,These are both,NA,dan,warmup1
323,pug,NA,10,warmup/great-dane.jpg,pug,This is a,no,1,dogs,susan,great dane,NA,Please label the pictures below.,NA,NA,NA,NA,NA,warmup/pug.jpg,dogs,some_college,english,NA,NA,dogs,NA,2,1566414766824,2,NA,This is a,2,These are both,NA,great dane,warmup1
323,daisy,NA,10,warmup/peony.png,daisy,This is a,no,1,flowers,susan,peony,NA,Please label the pictures below.,NA,NA,NA,NA,NA,warmup/daisy.png,flowers,some_college,english,NA,NA,flowers,NA,3,1566414766824,1,NA,This is a,2,These are both,NA,rose,warmup1
323,daisy,NA,10,warmup/peony.png,daisy,This is a,no,1,flowers,susan,peony,NA,Please label the pictures below.,NA,NA,NA,NA,NA,warmup/daisy.png,flowers,some_college,english,NA,NA,flowers,NA,3,1566414766824,2,NA,This is a,2,These are both,NA,peony,warmup1
323,NA,images/tree-parade.png,10,NA,NA,That's a small,no,1,trees,susan,NA,NA,This one is also in the landscape.,prenominal,You say to your friend:,NA,bonsai,NA,NA,NA,some_college,english,NA,NA,NA,You see the following items in a landscape.,1,1566414766824,NA,images/bonsai.png,NA,2,NA,small,NA,main1
323,NA,images/dog-parade2.png,10,NA,NA,That's a big,no,1,dogs,susan,NA,NA,This one is also in the parade.,prenominal,You say to your friend:,NA,great dane,NA,NA,NA,some_college,english,NA,NA,NA,You see a parade of animals.,2,1566414766824,NA,images/great-dane.png,NA,2,NA,big,NA,main1
323,NA,images/flower-parade.png,10,NA,NA,That's a small,no,1,flowers,susan,NA,NA,This one is also in the collection.,prenominal,You say to your friend:,NA,daisy,NA,NA,NA,some_college,english,NA,NA,NA,You see a collection of plants.,3,1566414766824,NA,images/daisy.png,NA,2,NA,small,NA,main1
323,tuna,NA,10,warmup/clownfish.jpg,tuna,This is a,no,1,fish,susan,clownfish,NA,Please label the pictures below.,NA,NA,NA,NA,NA,warmup/tuna.jpg,fish,some_college,english,NA,NA,fish,NA,1,1566414766824,1,NA,This is a,2,These are both,NA,clown fish,warmup2
323,tuna,NA,10,warmup/clownfish.jpg,tuna,This is a,no,1,fish,susan,clownfish,NA,Please label the pictures below.,NA,NA,NA,NA,NA,warmup/tuna.jpg,fish,some_college,english,NA,NA,fish,NA,1,1566414766824,2,NA,This is a,2,These are both,NA,clownfish,warmup2
323,marlin,NA,10,warmup/goldfish.png,swordfish,This is a,no,1,fish,susan,goldfish,NA,Please label the pictures below.,NA,NA,NA,NA,NA,warmup/swordfish.jpg,fish,some_college,english,NA,NA,fish,NA,2,1566414766824,1,NA,This is a,2,These are both,NA,goldfish,warmup2
323,swordfish,NA,10,warmup/goldfish.png,swordfish,This is a,no,1,fish,susan,goldfish,NA,Please label the pictures below.,NA,NA,NA,NA,NA,warmup/swordfish.jpg,fish,some_college,english,NA,NA,fish,NA,2,1566414766824,2,NA,This is a,2,These are both,NA,goldfish,warmup2
323,swan,NA,10,warmup/canary.jpg,swan,This is a,no,1,birds,susan,canary,NA,Please label the pictures below.,NA,NA,NA,NA,NA,warmup/swan.jpg,birds,some_college,english,NA,NA,birds,NA,3,1566414766824,1,NA,This is a,2,These are both,NA,canary,warmup2
323,NA,images/bird-parade3.png,10,NA,NA,That's a big,no,1,birds,susan,NA,NA,This one is also in the parade.,prenominal,You say to your friend:,NA,swan,NA,NA,NA,some_college,english,NA,NA,NA,You see a parade of animals.,1,1566414766824,NA,images/swan.png,NA,2,NA,big,NA,main2
323,NA,images/fish-parade.png,10,NA,NA,That's a small,no,1,fish,susan,NA,NA,This one is also in the parade.,prenominal,You say to your friend:,NA,goldfish,NA,NA,NA,some_college,english,NA,NA,NA,You see a parade of animals.,2,1566414766824,NA,images/goldfish.png,NA,2,NA,small,NA,main2
323,NA,images/fish-parade2.png,10,NA,NA,That's a big,no,1,fish,susan,NA,NA,This one is also in the parade.,prenominal,You say to your friend:,NA,tuna,NA,NA,NA,some_college,english,NA,NA,NA,You see a parade of animals.,3,1566414766824,NA,images/tuna.png,NA,2,NA,big,NA,main2
322,swan,NA,10,warmup/canary.jpg,swan,This is a,no,1,birds,jennifer,canary,yes,Please label the pictures below.,NA,NA,26,NA,none,warmup/swan.jpg,birds,graduated_college,English,male,NA,birds,NA,1,1566414544935,1,NA,This is a,1.5,These are both,NA,pet bird,warmup1
322,swan,NA,10,warmup/canary.jpg,swan,This is a,no,1,birds,jennifer,canary,yes,Please label the pictures below.,NA,NA,26,NA,none,warmup/swan.jpg,birds,graduated_college,English,male,NA,birds,NA,1,1566414544935,2,NA,This is a,1.5,These are both,NA,canary,warmup1
322,dandelion,NA,10,warmup/sunflower.png,dandelion,This is a,no,1,flowers,jennifer,sunflower,yes,Please label the pictures below.,NA,NA,26,NA,none,warmup/dandelion.jpg,flowers,graduated_college,English,male,NA,flowers,NA,2,1566414544935,1,NA,This is a,1.5,These are both,NA,sunflower,warmup1
322,shark,NA,10,warmup/goldfish.png,swordfish,This is a,no,1,fish,jennifer,goldfish,yes,Please label the pictures below.,NA,NA,26,NA,none,warmup/swordfish.jpg,fish,graduated_college,English,male,NA,fish,NA,3,1566414544935,1,NA,This is a,1.5,These are both,NA,goldfish,warmup1
322,swordfish,NA,10,warmup/goldfish.png,swordfish,This is a,no,1,fish,jennifer,goldfish,yes,Please label the pictures below.,NA,NA,26,NA,none,warmup/swordfish.jpg,fish,graduated_college,English,male,NA,fish,NA,3,1566414544935,2,NA,This is a,1.5,These are both,NA,goldfish,warmup1
322,NA,images/fish-parade.png,10,NA,NA,That's a big,no,1,fish,jennifer,NA,yes,This one is also in the parade.,prenominal,You say to your friend:,26,swordfish,none,NA,NA,graduated_college,English,male,NA,NA,You see a parade of animals.,1,1566414544935,NA,images/swordfish.png,NA,1.5,NA,big,NA,main1
322,NA,images/flower-parade2.png,10,NA,NA,That's a small,no,1,flowers,jennifer,NA,yes,This one is also in the collection.,prenominal,You say to your friend:,26,dandelion,none,NA,NA,graduated_college,English,male,NA,NA,You see a collection of plants.,2,1566414544935,NA,images/dandelion.png,NA,1.5,NA,small,NA,main1
322,NA,images/bird-parade3.png,10,NA,NA,That's a big,no,1,birds,jennifer,NA,yes,This one is also in the parade.,prenominal,You say to your friend:,26,swan,none,NA,NA,graduated_college,English,male,NA,NA,You see a parade of animals.,3,1566414544935,NA,images/swan.png,NA,1.5,NA,big,NA,main1
322,big tree,NA,10,warmup/bonsai.jpg,redwood|sequoia,This is a,no,1,trees,jennifer,bonsai,yes,Please label the pictures below.,NA,NA,26,NA,none,warmup/sequoia.jpg,trees,graduated_college,English,male,NA,trees,NA,1,1566414544935,1,NA,This is a,1.5,These are both,NA,small tree,warmup2
322,redwood,NA,10,warmup/bonsai.jpg,redwood|sequoia,This is a,no,1,trees,jennifer,bonsai,yes,Please label the pictures below.,NA,NA,26,NA,none,warmup/sequoia.jpg,trees,graduated_college,English,male,NA,trees,NA,1,1566414544935,2,NA,This is a,1.5,These are both,NA,bonsai,warmup2
322,hummingbird,NA,10,warmup/eagle.jpg,hummingbird,This is a,no,1,birds,jennifer,eagle,yes,Please label the pictures below.,NA,NA,26,NA,none,warmup/colibri.jpg,birds,graduated_college,English,male,NA,birds,NA,2,1566414544935,1,NA,This is an,1.5,These are both,NA,eagle,warmup2
322,trout,NA,10,warmup/clownfish.jpg,tuna,This is a,no,1,fish,jennifer,clownfish,yes,Please label the pictures below.,NA,NA,26,NA,none,warmup/tuna.jpg,fish,graduated_college,English,male,NA,fish,NA,3,1566414544935,1,NA,This is a,1.5,These are both,NA,fish,warmup2
322,tuna,NA,10,warmup/clownfish.jpg,tuna,This is a,no,1,fish,jennifer,clownfish,yes,Please label the pictures below.,NA,NA,26,NA,none,warmup/tuna.jpg,fish,graduated_college,English,male,NA,fish,NA,3,1566414544935,2,NA,This is a,1.5,These are both,NA,clownfish,warmup2
322,NA,images/tree-parade.png,10,NA,NA,That's a small,no,1,trees,jennifer,NA,yes,This one is also in the landscape.,prenominal,You say to your friend:,26,bonsai,none,NA,NA,graduated_college,English,male,NA,NA,You see the following items in a landscape.,1,1566414544935,NA,images/bonsai.png,NA,1.5,NA,small,NA,main2
322,NA,images/fish-parade2.png,10,NA,NA,That's a small,no,1,fish,jennifer,NA,yes,This one is also in the parade.,prenominal,You say to your friend:,26,clownfish,none,NA,NA,graduated_college,English,male,NA,NA,You see a parade of animals.,2,1566414544935,NA,images/clownfish.png,NA,1.5,NA,small,NA,main2
322,NA,images/bird-parade2.png,10,NA,NA,That's a big,no,1,birds,jennifer,NA,yes,This one is also in the parade.,prenominal,You say to your friend:,26,eagle,none,NA,NA,graduated_college,English,male,NA,NA,You see a parade of animals.,3,1566414544935,NA,images/eagle.png,NA,1.5,NA,big,NA,main2
313,chihuaha,NA,10,warmup/doberman.png,chihuahua,This is a,none,1,dogs,sarah,doberman,yes,Please label the pictures below.,NA,NA,35,NA,none,warmup/chihuahua.jpg,dogs,higher_degree,English,male,NA,dogs,NA,1,1566413546024,1,NA,This is a,1,These are both,NA,doberman,warmup1
313,chihuahua,NA,10,warmup/doberman.png,chihuahua,This is a,none,1,dogs,sarah,doberman,yes,Please label the pictures below.,NA,NA,35,NA,none,warmup/chihuahua.jpg,dogs,higher_degree,English,male,NA,dogs,NA,1,1566413546024,2,NA,This is a,1,These are both,NA,doberman,warmup1
313,margeta,NA,10,warmup/peony.png,daisy,This is a,none,1,flowers,sarah,peony,yes,Please label the pictures below.,NA,NA,35,NA,none,warmup/daisy.png,flowers,higher_degree,English,male,NA,flowers,NA,2,1566413546024,1,NA,This is a,1,These are both,NA,peony,warmup1
313,margareta,NA,10,warmup/peony.png,daisy,This is a,none,1,flowers,sarah,peony,yes,Please label the pictures below.,NA,NA,35,NA,none,warmup/daisy.png,flowers,higher_degree,English,male,NA,flowers,NA,2,1566413546024,2,NA,This is a,1,These are both,NA,peony,warmup1
313,daisy,NA,10,warmup/peony.png,daisy,This is a,none,1,flowers,sarah,peony,yes,Please label the pictures below.,NA,NA,35,NA,none,warmup/daisy.png,flowers,higher_degree,English,male,NA,flowers,NA,2,1566413546024,3,NA,This is a,1,These are both,NA,peony,warmup1
313,tuna,NA,10,warmup/clownfish.jpg,tuna,This is a,none,1,fish,sarah,clownfish,yes,Please label the pictures below.,NA,NA,35,NA,none,warmup/tuna.jpg,fishes,higher_degree,English,male,NA,fish,NA,3,1566413546024,1,NA,This is a,1,These are both,NA,clown,warmup1
313,tuna,NA,10,warmup/clownfish.jpg,tuna,This is a,none,1,fish,sarah,clownfish,yes,Please label the pictures below.,NA,NA,35,NA,none,warmup/tuna.jpg,fishes,higher_degree,English,male,NA,fish,NA,3,1566413546024,2,NA,This is a,1,These are both,NA,clownfish,warmup1
313,tuna,NA,10,warmup/clownfish.jpg,tuna,This is a,none,1,fish,sarah,clownfish,yes,Please label the pictures below.,NA,NA,35,NA,none,warmup/tuna.jpg,fish,higher_degree,English,male,NA,fish,NA,3,1566413546024,3,NA,This is a,1,These are both,NA,clownfish,warmup1
313,NA,images/flower-parade.png,10,NA,NA,That's a big,none,1,flowers,sarah,NA,yes,This one is also in the collection.,prenominal,You say to your friend:,35,flower,none,NA,NA,higher_degree,English,male,NA,NA,You see a collection of plants.,1,1566413546024,NA,images/peony.png,NA,1,NA,big,NA,main1
313,NA,images/fish-parade2.png,10,NA,NA,That's a small,none,1,fish,sarah,NA,yes,This one is also in the parade.,prenominal,You say to your friend:,35,fish,none,NA,NA,higher_degree,English,male,NA,NA,You see a parade of animals.,2,1566413546024,NA,images/clownfish.png,NA,1,NA,small,NA,main1
313,NA,images/dog-parade.png,10,NA,NA,That's a big,none,1,dogs,sarah,NA,yes,This one is also in the parade.,prenominal,You say to your friend:,35,dog,none,NA,NA,higher_degree,English,male,NA,NA,You see a parade of animals.,3,1566413546024,NA,images/doberman.png,NA,1,NA,big,NA,main1
313,bulldog,NA,10,warmup/great-dane.jpg,pug,This is a,none,1,dogs,sarah,great dane,yes,Please label the pictures below.,NA,NA,35,NA,none,warmup/pug.jpg,dog,higher_degree,English,male,NA,dogs,NA,1,1566413546024,1,NA,This is a,1,These are both,NA,dobermann,warmup2
313,pug,NA,10,warmup/great-dane.jpg,pug,This is a,none,1,dogs,sarah,great dane,yes,Please label the pictures below.,NA,NA,35,NA,none,warmup/pug.jpg,dogs,higher_degree,English,male,NA,dogs,NA,1,1566413546024,2,NA,This is a,1,These are both,NA,dane,warmup2
313,pug,NA,10,warmup/great-dane.jpg,pug,This is a,none,1,dogs,sarah,great dane,yes,Please label the pictures below.,NA,NA,35,NA,none,warmup/pug.jpg,dogs,higher_degree,English,male,NA,dogs,NA,1,1566413546024,3,NA,This is a,1,These are both,NA,great dane,warmup2
313,swordfish,NA,10,warmup/goldfish.png,swordfish,This is a,none,1,fish,sarah,goldfish,yes,Please label the pictures below.,NA,NA,35,NA,none,warmup/swordfish.jpg,fish,higher_degree,English,male,NA,fish,NA,2,1566413546024,1,NA,This is a,1,These are both,NA,asasa,warmup2
313,swordfish,NA,10,warmup/goldfish.png,swordfish,This is a,none,1,fish,sarah,goldfish,yes,Please label the pictures below.,NA,NA,35,NA,none,warmup/swordfish.jpg,fish,higher_degree,English,male,NA,fish,NA,2,1566413546024,2,NA,This is a,1,These are both,NA,goldfish,warmup2
313,hummingbird,NA,10,warmup/eagle.jpg,hummingbird,This is a,none,1,birds,sarah,eagle,yes,Please label the pictures below.,NA,NA,35,NA,none,warmup/colibri.jpg,birds,higher_degree,English,male,NA,birds,NA,3,1566413546024,1,NA,This is an,1,These are both,NA,eagle,warmup2
313,NA,images/bird-parade2.png,10,NA,NA,That's a big,none,1,birds,sarah,NA,yes,This one is also in the parade.,prenominal,You say to your friend:,35,eagle,none,NA,NA,higher_degree,English,male,NA,NA,You see a parade of animals.,1,1566413546024,NA,images/eagle.png,NA,1,NA,big,NA,main2
313,NA,images/dog-parade2.png,10,NA,NA,That's a small,none,1,dogs,sarah,NA,yes,This one is also in the parade.,prenominal,You say to your friend:,35,dog,none,NA,NA,higher_degree,English,male,NA,NA,You see a parade of animals.,2,1566413546024,NA,images/pug.png,NA,1,NA,small,NA,main2
313,NA,images/fish-parade.png,10,NA,NA,That's a small,none,1,fish,sarah,NA,yes,This one is also in the parade.,prenominal,You say to your friend:,35,fish,none,NA,NA,higher_degree,English,male,NA,NA,You see a parade of animals.,3,1566413546024,NA,images/goldfish.png,NA,1,NA,small,NA,main2
311,tree,NA,10,warmup/bonsai.jpg,redwood|sequoia,This is a,None,2,trees,elizabeth,bonsai,yes,Please label the pictures below.,NA,NA,50,NA,NA,warmup/sequoia.jpg,trees,graduated_high_school,English,female,NA,trees,NA,1,1566413693781,1,NA,This is a,1,These are both,NA,bonsai tree,warmup1
311,redwood,NA,10,warmup/bonsai.jpg,redwood|sequoia,This is a,None,2,trees,elizabeth,bonsai,yes,Please label the pictures below.,NA,NA,50,NA,NA,warmup/sequoia.jpg,trees,graduated_high_school,English,female,NA,trees,NA,1,1566413693781,2,NA,This is a,1,These are both,NA,bonsai,warmup1
311,swan,NA,10,warmup/canary.jpg,swan,This is a,None,2,birds,elizabeth,canary,yes,Please label the pictures below.,NA,NA,50,NA,NA,warmup/swan.jpg,birds,graduated_high_school,English,female,NA,birds,NA,2,1566413693781,1,NA,This is a,1,These are both,NA,finch,warmup1
311,swan,NA,10,warmup/canary.jpg,swan,This is a,None,2,birds,elizabeth,canary,yes,Please label the pictures below.,NA,NA,50,NA,NA,warmup/swan.jpg,birds,graduated_high_school,English,female,NA,birds,NA,2,1566413693781,2,NA,This is a,1,These are both,NA,canary,warmup1
311,trout,NA,10,warmup/clownfish.jpg,tuna,This is a,None,2,fish,elizabeth,clownfish,yes,Please label the pictures below.,NA,NA,50,NA,NA,warmup/tuna.jpg,fish,graduated_high_school,English,female,NA,fish,NA,3,1566413693781,1,NA,This is a,1,These are both,NA,clownfish,warmup1
311,tuna,NA,10,warmup/clownfish.jpg,tuna,This is a,None,2,fish,elizabeth,clownfish,yes,Please label the pictures below.,NA,NA,50,NA,NA,warmup/tuna.jpg,fish,graduated_high_school,English,female,NA,fish,NA,3,1566413693781,2,NA,This is a,1,These are both,NA,clownfish,warmup1
311,NA,images/fish-parade2.png,10,NA,NA,That's a small,None,2,fish,elizabeth,NA,yes,This one is also in the parade.,prenominal,You say to your friend:,50,clownfish,NA,NA,NA,graduated_high_school,English,female,NA,NA,You see a parade of animals.,1,1566413693781,NA,images/clownfish.png,NA,1,NA,small,NA,main1
311,NA,images/tree-parade.png,10,NA,NA,That's a small,None,2,trees,elizabeth,NA,yes,This one is also in the landscape.,prenominal,You say to your friend:,50,tree,NA,NA,NA,graduated_high_school,English,female,NA,NA,You see the following items in a landscape.,2,1566413693781,NA,images/bonsai.png,NA,1,NA,small,NA,main1
311,NA,images/bird-parade3.png,10,NA,NA,That's a big,None,2,birds,elizabeth,NA,yes,This one is also in the parade.,prenominal,You say to your friend:,50,swan,NA,NA,NA,graduated_high_school,English,female,NA,NA,You see a parade of animals.,3,1566413693781,NA,images/swan.png,NA,1,NA,big,NA,main1
311,swordfish,NA,10,warmup/goldfish.png,swordfish,This is a,None,2,fish,elizabeth,goldfish,yes,Please label the pictures below.,NA,NA,50,NA,NA,warmup/swordfish.jpg,fish,graduated_high_school,English,female,NA,fish,NA,1,1566413693781,1,NA,This is a,1,These are both,NA,goldfish,warmup2
311,chihuahua,NA,10,warmup/doberman.png,chihuahua,This is a,None,2,dogs,elizabeth,doberman,yes,Please label the pictures below.,NA,NA,50,NA,NA,warmup/chihuahua.jpg,dogs,graduated_high_school,English,female,NA,dogs,NA,2,1566413693781,1,NA,This is a,1,These are both,NA,doberman,warmup2
311,hummingbird,NA,10,warmup/eagle.jpg,hummingbird,This is a,None,2,birds,elizabeth,eagle,yes,Please label the pictures below.,NA,NA,50,NA,NA,warmup/colibri.jpg,birds,graduated_high_school,English,female,NA,birds,NA,3,1566413693781,1,NA,This is an,1,These are both,NA,eagle,warmup2
311,NA,images/dog-parade.png,10,NA,NA,That's a big,None,2,dogs,elizabeth,NA,yes,This one is also in the parade.,prenominal,You say to your friend:,50,dog,NA,NA,NA,graduated_high_school,English,female,NA,NA,You see a parade of animals.,1,1566413693781,NA,images/doberman.png,NA,1,NA,big,NA,main2
311,NA,images/fish-parade.png,10,NA,NA,That's a small,None,2,fish,elizabeth,NA,yes,This one is also in the parade.,prenominal,You say to your friend:,50,goldfish,NA,NA,NA,graduated_high_school,English,female,NA,NA,You see a parade of animals.,2,1566413693781,NA,images/goldfish.png,NA,1,NA,small,NA,main2
311,NA,images/bird-parade2.png,10,NA,NA,That's a big,None,2,birds,elizabeth,NA,yes,This one is also in the parade.,prenominal,You say to your friend:,50,eagle,NA,NA,NA,graduated_high_school,English,female,NA,NA,You see a parade of animals.,3,1566413693781,NA,images/eagle.png,NA,1,NA,big,NA,main2
310,woodpecker,NA,10,warmup/eagle.jpg,hummingbird,This is a,no,2,birds,Barbara,eagle,yes,Please label the pictures below.,NA,NA,40,NA,NA,warmup/colibri.jpg,birds,some_college,eng,male,NA,birds,NA,1,1566413762871,1,NA,This is an,1.25,These are both,NA,eagle,warmup1
310,hummingbird,NA,10,warmup/eagle.jpg,hummingbird,This is a,no,2,birds,Barbara,eagle,yes,Please label the pictures below.,NA,NA,40,NA,NA,warmup/colibri.jpg,birds,some_college,eng,male,NA,birds,NA,1,1566413762871,2,NA,This is an,1.25,These are both,NA,eagle,warmup1
310,pitbull,NA,10,warmup/great-dane.jpg,pug,This is a,no,2,dogs,Barbara,great dane,yes,Please label the pictures below.,NA,NA,40,NA,NA,warmup/pug.jpg,dogs,some_college,eng,male,NA,dogs,NA,2,1566413762871,1,NA,This is a,1.25,These are both,NA,great dane,warmup1
310,pug,NA,10,warmup/great-dane.jpg,pug,This is a,no,2,dogs,Barbara,great dane,yes,Please label the pictures below.,NA,NA,40,NA,NA,warmup/pug.jpg,dogs,some_college,eng,male,NA,dogs,NA,2,1566413762871,2,NA,This is a,1.25,These are both,NA,great dane,warmup1
310,swan,NA,10,warmup/canary.jpg,swan,This is a,no,2,birds,Barbara,canary,yes,Please label the pictures below.,NA,NA,40,NA,NA,warmup/swan.jpg,birds,some_college,eng,male,NA,birds,NA,3,1566413762871,1,NA,This is a,1.25,These are both,NA,robin,warmup1
310,swan,NA,10,warmup/canary.jpg,swan,This is a,no,2,birds,Barbara,canary,yes,Please label the pictures below.,NA,NA,40,NA,NA,warmup/swan.jpg,birds,some_college,eng,male,NA,birds,NA,3,1566413762871,2,NA,This is a,1.25,These are both,NA,canary,warmup1
310,NA,images/bird-parade2.png,10,NA,NA,That's a big,no,2,birds,Barbara,NA,yes,This one is also in the parade.,prenominal,You say to your friend:,40,eagle,NA,NA,NA,some_college,eng,male,NA,NA,You see a parade of animals.,1,1566413762871,NA,images/eagle.png,NA,1.25,NA,big,NA,main1
310,NA,images/dog-parade2.png,10,NA,NA,That's a big,no,2,dogs,Barbara,NA,yes,This one is also in the parade.,prenominal,You say to your friend:,40,great dane,NA,NA,NA,some_college,eng,male,NA,NA,You see a parade of animals.,2,1566413762871,NA,images/great-dane.png,NA,1.25,NA,big,NA,main1
310,NA,images/bird-parade3.png,10,NA,NA,That's a small,no,2,birds,Barbara,NA,yes,This one is also in the parade.,prenominal,You say to your friend:,40,bird,NA,NA,NA,some_college,eng,male,NA,NA,You see a parade of animals.,3,1566413762871,NA,images/canary.png,NA,1.25,NA,small,NA,main1
310,flower,NA,10,warmup/sunflower.png,dandelion,This is a,no,2,flowers,Barbara,sunflower,yes,Please label the pictures below.,NA,NA,40,NA,NA,warmup/dandelion.jpg,flowers,some_college,eng,male,NA,flowers,NA,1,1566413762871,1,NA,This is a,1.25,These are both,NA,sunflower,warmup2
310,dandelion,NA,10,warmup/sunflower.png,dandelion,This is a,no,2,flowers,Barbara,sunflower,yes,Please label the pictures below.,NA,NA,40,NA,NA,warmup/dandelion.jpg,flowers,some_college,eng,male,NA,flowers,NA,1,1566413762871,2,NA,This is a,1.25,These are both,NA,sunflower,warmup2
310,tree,NA,10,warmup/bonsai.jpg,redwood|sequoia,This is a,no,2,trees,Barbara,bonsai,yes,Please label the pictures below.,NA,NA,40,NA,NA,warmup/sequoia.jpg,trees,some_college,eng,male,NA,trees,NA,2,1566413762871,1,NA,This is a,1.25,These are both,NA,plant,warmup2
310,redwood,NA,10,warmup/bonsai.jpg,redwood|sequoia,This is a,no,2,trees,Barbara,bonsai,yes,Please label the pictures below.,NA,NA,40,NA,NA,warmup/sequoia.jpg,trees,some_college,eng,male,NA,trees,NA,2,1566413762871,2,NA,This is a,1.25,These are both,NA,bonsai,warmup2
310,stingray,NA,10,warmup/goldfish.png,swordfish,This is a,no,2,fish,Barbara,goldfish,yes,Please label the pictures below.,NA,NA,40,NA,NA,warmup/swordfish.jpg,fishes,some_college,eng,male,NA,fish,NA,3,1566413762871,1,NA,This is a,1.25,These are both,NA,goldfish,warmup2
310,swordfish,NA,10,warmup/goldfish.png,swordfish,This is a,no,2,fish,Barbara,goldfish,yes,Please label the pictures below.,NA,NA,40,NA,NA,warmup/swordfish.jpg,fishes,some_college,eng,male,NA,fish,NA,3,1566413762871,2,NA,This is a,1.25,These are both,NA,goldfish,warmup2
310,swordfish,NA,10,warmup/goldfish.png,swordfish,This is a,no,2,fish,Barbara,goldfish,yes,Please label the pictures below.,NA,NA,40,NA,NA,warmup/swordfish.jpg,fishes,some_college,eng,male,NA,fish,NA,3,1566413762871,3,NA,This is a,1.25,These are both,NA,goldfish,warmup2
310,swordfish,NA,10,warmup/goldfish.png,swordfish,This is a,no,2,fish,Barbara,goldfish,yes,Please label the pictures below.,NA,NA,40,NA,NA,warmup/swordfish.jpg,fish,some_college,eng,male,NA,fish,NA,3,1566413762871,4,NA,This is a,1.25,These are both,NA,goldfish,warmup2
310,NA,images/flower-parade2.png,10,NA,NA,That's a small,no,2,flowers,Barbara,NA,yes,This one is also in the collection.,prenominal,You say to your friend:,40,plant,NA,NA,NA,some_college,eng,male,NA,NA,You see a collection of plants.,1,1566413762871,NA,images/dandelion.png,NA,1.25,NA,small,NA,main2
310,NA,images/fish-parade.png,10,NA,NA,That's a big,no,2,fish,Barbara,NA,yes,This one is also in the parade.,prenominal,You say to your friend:,40,swordfish,NA,NA,NA,some_college,eng,male,NA,NA,You see a parade of animals.,2,1566413762871,NA,images/swordfish.png,NA,1.25,NA,big,NA,main2
310,NA,images/tree-parade.png,10,NA,NA,That's a small,no,2,trees,Barbara,NA,yes,This one is also in the landscape.,prenominal,You say to your friend:,40,bonsai,NA,NA,NA,some_college,eng,male,NA,NA,You see the following items in a landscape.,3,1566413762871,NA,images/bonsai.png,NA,1.25,NA,small,NA,main2
309,blue marlin,NA,10,warmup/goldfish.png,swordfish,This is a,The next button took a long time to show up for the first trial,1,fish,elizabeth,goldfish,yes,Please label the pictures below.,NA,NA,31,NA,NA,warmup/swordfish.jpg,fish,graduated_college,English,female,NA,fish,NA,1,1566413641776,1,NA,This is a,1,These are both,NA,goldfish,warmup1
309,swordfish,NA,10,warmup/goldfish.png,swordfish,This is a,The next button took a long time to show up for the first trial,1,fish,elizabeth,goldfish,yes,Please label the pictures below.,NA,NA,31,NA,NA,warmup/swordfish.jpg,fish,graduated_college,English,female,NA,fish,NA,1,1566413641776,2,NA,This is a,1,These are both,NA,goldfish,warmup1
309,pug,NA,10,warmup/great-dane.jpg,pug,This is a,The next button took a long time to show up for the first trial,1,dogs,elizabeth,great dane,yes,Please label the pictures below.,NA,NA,31,NA,NA,warmup/pug.jpg,dogs,graduated_college,English,female,NA,dogs,NA,2,1566413641776,1,NA,This is a,1,These are both,NA,great dane,warmup1
309,redwood,NA,10,warmup/bonsai.jpg,redwood|sequoia,This is a,The next button took a long time to show up for the first trial,1,trees,elizabeth,bonsai,yes,Please label the pictures below.,NA,NA,31,NA,NA,warmup/sequoia.jpg,trees,graduated_college,English,female,NA,trees,NA,3,1566413641776,1,NA,This is a,1,These are both,NA,bonsai,warmup1
309,NA,images/fish-parade.png,10,NA,NA,That's a big,The next button took a long time to show up for the first trial,1,fish,elizabeth,NA,yes,This one is also in the parade.,prenominal,You say to your friend:,31,fish,NA,NA,NA,graduated_college,English,female,NA,NA,You see a parade of animals.,1,1566413641776,NA,images/swordfish.png,NA,1,NA,big,NA,main1
309,NA,images/dog-parade2.png,10,NA,NA,That's a small,The next button took a long time to show up for the first trial,1,dogs,elizabeth,NA,yes,This one is also in the parade.,prenominal,You say to your friend:,31,dog,NA,NA,NA,graduated_college,English,female,NA,NA,You see a parade of animals.,2,1566413641776,NA,images/pug.png,NA,1,NA,small,NA,main1
309,NA,images/tree-parade.png,10,NA,NA,That's a big,The next button took a long time to show up for the first trial,1,trees,elizabeth,NA,yes,This one is also in the landscape.,prenominal,You say to your friend:,31,tree,NA,NA,NA,graduated_college,English,female,NA,NA,You see the following items in a landscape.,3,1566413641776,NA,images/sequoia.png,NA,1,NA,big,NA,main1
309,tuna,NA,10,warmup/clownfish.jpg,tuna,This is a,The next button took a long time to show up for the first trial,1,fish,elizabeth,clownfish,yes,Please label the pictures below.,NA,NA,31,NA,NA,warmup/tuna.jpg,fish,graduated_college,English,female,NA,fish,NA,1,1566413641776,1,NA,This is a,1,These are both,NA,clownfish,warmup2
309,daffodil,NA,10,warmup/sunflower.png,dandelion,This is a,The next button took a long time to show up for the first trial,1,flowers,elizabeth,sunflower,yes,Please label the pictures below.,NA,NA,31,NA,NA,warmup/dandelion.jpg,flowers,graduated_college,English,female,NA,flowers,NA,2,1566413641776,1,NA,This is a,1,These are both,NA,sunflower,warmup2
309,dandelion,NA,10,warmup/sunflower.png,dandelion,This is a,The next button took a long time to show up for the first trial,1,flowers,elizabeth,sunflower,yes,Please label the pictures below.,NA,NA,31,NA,NA,warmup/dandelion.jpg,flowers,graduated_college,English,female,NA,flowers,NA,2,1566413641776,2,NA,This is a,1,These are both,NA,sunflower,warmup2
309,chihuahua,NA,10,warmup/doberman.png,chihuahua,This is a,The next button took a long time to show up for the first trial,1,dogs,elizabeth,doberman,yes,Please label the pictures below.,NA,NA,31,NA,NA,warmup/chihuahua.jpg,dogs,graduated_college,English,female,NA,dogs,NA,3,1566413641776,1,NA,This is a,1,These are both,NA,doberman,warmup2
309,NA,images/flower-parade2.png,10,NA,NA,That's a big,The next button took a long time to show up for the first trial,1,flowers,elizabeth,NA,yes,This one is also in the collection.,prenominal,You say to your friend:,31,flower,NA,NA,NA,graduated_college,English,female,NA,NA,You see a collection of plants.,1,1566413641776,NA,images/sunflower.png,NA,1,NA,big,NA,main2
309,NA,images/dog-parade.png,10,NA,NA,That's a small,The next button took a long time to show up for the first trial,1,dogs,elizabeth,NA,yes,This one is also in the parade.,prenominal,You say to your friend:,31,dog,NA,NA,NA,graduated_college,English,female,NA,NA,You see a parade of animals.,2,1566413641776,NA,images/chihuahua.png,NA,1,NA,small,NA,main2
309,NA,images/fish-parade2.png,10,NA,NA,That's a small,The next button took a long time to show up for the first trial,1,fish,elizabeth,NA,yes,This one is also in the parade.,prenominal,You say to your friend:,31,fish,NA,NA,NA,graduated_college,English,female,NA,NA,You see a parade of animals.,3,1566413641776,NA,images/clownfish.png,NA,1,NA,small,NA,main2
308,bird,NA,10,warmup/eagle.jpg,hummingbird,This is a,NA,1,birds,Patricia,eagle,yes,Please label the pictures below.,NA,NA,32,NA,NA,warmup/colibri.jpg,animals,graduated_college,english,male,NA,birds,NA,1,1566413617154,1,NA,This is an,3,These are both,NA,eagle,warmup1
308,humming bird,NA,10,warmup/eagle.jpg,hummingbird,This is a,NA,1,birds,Patricia,eagle,yes,Please label the pictures below.,NA,NA,32,NA,NA,warmup/colibri.jpg,birds,graduated_college,english,male,NA,birds,NA,1,1566413617154,2,NA,This is an,3,These are both,NA,eagle,warmup1
