submission_id,response1,startDate,context_picture,experiment_id,picture2,correct1,question1,problems,enjoyment,hit_id,item,botresponse,assignment_id,correct2,understand,text,condition,sentence,age,response,comments,picture1,response3,education,worker_id,languages,sex,RT,correct3,context,trial_number,startTime,attempts,picture,question3,fairprice,question2,size,response2,trial_name
344,dog,Wed Aug 21 2019 16:28:39 GMT-0400 (Eastern Daylight Time),NA,10,warmup/doberman.png,chihuahua,This is a ,No,1,3MDKGGG61QBTGEBQN7CYBT71GKD6TN,dogs,margaret,3TPWUS5F8APDBWMEI5ZE8X2Y4W6WCT,doberman,yes,Please label the pictures below.,NA,NA,27,NA,,warmup/chihuahua.jpg,dogs,some_college,A29SMGPDP7K9NU,English,female,NA,dogs,NA,1,1566419319168,1,NA,This is a ,1,These are both,NA,dog,warmup1
344,chihuahua,Wed Aug 21 2019 16:28:39 GMT-0400 (Eastern Daylight Time),NA,10,warmup/doberman.png,chihuahua,This is a ,No,1,3MDKGGG61QBTGEBQN7CYBT71GKD6TN,dogs,margaret,3TPWUS5F8APDBWMEI5ZE8X2Y4W6WCT,doberman,yes,Please label the pictures below.,NA,NA,27,NA,,warmup/chihuahua.jpg,dogs,some_college,A29SMGPDP7K9NU,English,female,NA,dogs,NA,1,1566419319168,2,NA,This is a ,1,These are both,NA,doberman,warmup1
344,carnation,Wed Aug 21 2019 16:28:39 GMT-0400 (Eastern Daylight Time),NA,10,warmup/sunflower.png,dandelion,This is a ,No,1,3MDKGGG61QBTGEBQN7CYBT71GKD6TN,flowers,margaret,3TPWUS5F8APDBWMEI5ZE8X2Y4W6WCT,sunflower,yes,Please label the pictures below.,NA,NA,27,NA,,warmup/dandelion.jpg,flowers,some_college,A29SMGPDP7K9NU,English,female,NA,flowers,NA,2,1566419319168,1,NA,This is a ,1,These are both,NA,sunflower,warmup1
344,dandelion,Wed Aug 21 2019 16:28:39 GMT-0400 (Eastern Daylight Time),NA,10,warmup/sunflower.png,dandelion,This is a ,No,1,3MDKGGG61QBTGEBQN7CYBT71GKD6TN,flowers,margaret,3TPWUS5F8APDBWMEI5ZE8X2Y4W6WCT,sunflower,yes,Please label the pictures below.,NA,NA,27,NA,,warmup/dandelion.jpg,flowers,some_college,A29SMGPDP7K9NU,English,female,NA,flowers,NA,2,1566419319168,2,NA,This is a ,1,These are both,NA,sunflower,warmup1
344,swan,Wed Aug 21 2019 16:28:39 GMT-0400 (Eastern Daylight Time),NA,10,warmup/canary.jpg,swan,This is a ,No,1,3MDKGGG61QBTGEBQN7CYBT71GKD6TN,birds,margaret,3TPWUS5F8APDBWMEI5ZE8X2Y4W6WCT,canary,yes,Please label the pictures below.,NA,NA,27,NA,,warmup/swan.jpg,birds,some_college,A29SMGPDP7K9NU,English,female,NA,birds,NA,3,1566419319168,1,NA,This is a ,1,These are both,NA,sparrow,warmup1
344,swan,Wed Aug 21 2019 16:28:39 GMT-0400 (Eastern Daylight Time),NA,10,warmup/canary.jpg,swan,This is a ,No,1,3MDKGGG61QBTGEBQN7CYBT71GKD6TN,birds,margaret,3TPWUS5F8APDBWMEI5ZE8X2Y4W6WCT,canary,yes,Please label the pictures below.,NA,NA,27,NA,,warmup/swan.jpg,birds,some_college,A29SMGPDP7K9NU,English,female,NA,birds,NA,3,1566419319168,2,NA,This is a ,1,These are both,NA,canary,warmup1
344,NA,Wed Aug 21 2019 16:28:39 GMT-0400 (Eastern Daylight Time),images/bird-parade3.png,10,NA,NA,That's a big ,No,1,3MDKGGG61QBTGEBQN7CYBT71GKD6TN,birds,margaret,3TPWUS5F8APDBWMEI5ZE8X2Y4W6WCT,NA,yes,This one is also in the parade.,prenominal,You say to your friend:,27,swan,,NA,NA,some_college,A29SMGPDP7K9NU,English,female,,NA,You see a parade of animals.,1,1566419319168,NA,images/swan.png,NA,1,,big,NA,main1
344,NA,Wed Aug 21 2019 16:28:39 GMT-0400 (Eastern Daylight Time),images/dog-parade.png,10,NA,NA,That's a small ,No,1,3MDKGGG61QBTGEBQN7CYBT71GKD6TN,dogs,margaret,3TPWUS5F8APDBWMEI5ZE8X2Y4W6WCT,NA,yes,This one is also in the parade.,prenominal,You say to your friend:,27,chihuahua,,NA,NA,some_college,A29SMGPDP7K9NU,English,female,,NA,You see a parade of animals.,2,1566419319168,NA,images/chihuahua.png,NA,1,,small,NA,main1
344,NA,Wed Aug 21 2019 16:28:39 GMT-0400 (Eastern Daylight Time),images/flower-parade2.png,10,NA,NA,That's a big ,No,1,3MDKGGG61QBTGEBQN7CYBT71GKD6TN,flowers,margaret,3TPWUS5F8APDBWMEI5ZE8X2Y4W6WCT,NA,yes,This one is also in the collection.,prenominal,You say to your friend:,27,sunflower,,NA,NA,some_college,A29SMGPDP7K9NU,English,female,,NA,You see a collection of plants.,3,1566419319168,NA,images/sunflower.png,NA,1,,big,NA,main1
344,goose,Wed Aug 21 2019 16:28:39 GMT-0400 (Eastern Daylight Time),NA,10,warmup/sparrow.jpg,goose,This is a ,No,1,3MDKGGG61QBTGEBQN7CYBT71GKD6TN,birds,margaret,3TPWUS5F8APDBWMEI5ZE8X2Y4W6WCT,sparrow,yes,Please label the pictures below.,NA,NA,27,NA,,warmup/goose.png,birds,some_college,A29SMGPDP7K9NU,English,female,NA,birds,NA,1,1566419319168,1,NA,This is a ,1,These are both,NA,robin,warmup2
344,goose,Wed Aug 21 2019 16:28:39 GMT-0400 (Eastern Daylight Time),NA,10,warmup/sparrow.jpg,goose,This is a ,No,1,3MDKGGG61QBTGEBQN7CYBT71GKD6TN,birds,margaret,3TPWUS5F8APDBWMEI5ZE8X2Y4W6WCT,sparrow,yes,Please label the pictures below.,NA,NA,27,NA,,warmup/goose.png,birds,some_college,A29SMGPDP7K9NU,English,female,NA,birds,NA,1,1566419319168,2,NA,This is a ,1,These are both,NA,sparrow,warmup2
344,bass,Wed Aug 21 2019 16:28:39 GMT-0400 (Eastern Daylight Time),NA,10,warmup/clownfish.jpg,tuna,This is a ,No,1,3MDKGGG61QBTGEBQN7CYBT71GKD6TN,fish,margaret,3TPWUS5F8APDBWMEI5ZE8X2Y4W6WCT,clownfish,yes,Please label the pictures below.,NA,NA,27,NA,,warmup/tuna.jpg,fish,some_college,A29SMGPDP7K9NU,English,female,NA,fish,NA,2,1566419319168,1,NA,This is a ,1,These are both,NA,clown fish,warmup2
344,tuna,Wed Aug 21 2019 16:28:39 GMT-0400 (Eastern Daylight Time),NA,10,warmup/clownfish.jpg,tuna,This is a ,No,1,3MDKGGG61QBTGEBQN7CYBT71GKD6TN,fish,margaret,3TPWUS5F8APDBWMEI5ZE8X2Y4W6WCT,clownfish,yes,Please label the pictures below.,NA,NA,27,NA,,warmup/tuna.jpg,fish,some_college,A29SMGPDP7K9NU,English,female,NA,fish,NA,2,1566419319168,2,NA,This is a ,1,These are both,NA,clownfish,warmup2
344,swordfish,Wed Aug 21 2019 16:28:39 GMT-0400 (Eastern Daylight Time),NA,10,warmup/goldfish.png,swordfish,This is a ,No,1,3MDKGGG61QBTGEBQN7CYBT71GKD6TN,fish,margaret,3TPWUS5F8APDBWMEI5ZE8X2Y4W6WCT,goldfish,yes,Please label the pictures below.,NA,NA,27,NA,,warmup/swordfish.jpg,fish,some_college,A29SMGPDP7K9NU,English,female,NA,fish,NA,3,1566419319168,1,NA,This is a ,1,These are both,NA,fishy,warmup2
344,swordfish,Wed Aug 21 2019 16:28:39 GMT-0400 (Eastern Daylight Time),NA,10,warmup/goldfish.png,swordfish,This is a ,No,1,3MDKGGG61QBTGEBQN7CYBT71GKD6TN,fish,margaret,3TPWUS5F8APDBWMEI5ZE8X2Y4W6WCT,goldfish,yes,Please label the pictures below.,NA,NA,27,NA,,warmup/swordfish.jpg,fish,some_college,A29SMGPDP7K9NU,English,female,NA,fish,NA,3,1566419319168,2,NA,This is a ,1,These are both,NA,goldfish,warmup2
344,NA,Wed Aug 21 2019 16:28:39 GMT-0400 (Eastern Daylight Time),images/fish-parade.png,10,NA,NA,That's a small ,No,1,3MDKGGG61QBTGEBQN7CYBT71GKD6TN,fish,margaret,3TPWUS5F8APDBWMEI5ZE8X2Y4W6WCT,NA,yes,This one is also in the parade.,prenominal,You say to your friend:,27,goldfish,,NA,NA,some_college,A29SMGPDP7K9NU,English,female,,NA,You see a parade of animals.,1,1566419319168,NA,images/goldfish.png,NA,1,,small,NA,main2
344,NA,Wed Aug 21 2019 16:28:39 GMT-0400 (Eastern Daylight Time),images/fish-parade2.png,10,NA,NA,That's a small ,No,1,3MDKGGG61QBTGEBQN7CYBT71GKD6TN,fish,margaret,3TPWUS5F8APDBWMEI5ZE8X2Y4W6WCT,NA,yes,This one is also in the parade.,prenominal,You say to your friend:,27,clownfish,,NA,NA,some_college,A29SMGPDP7K9NU,English,female,,NA,You see a parade of animals.,2,1566419319168,NA,images/clownfish.png,NA,1,,small,NA,main2
344,NA,Wed Aug 21 2019 16:28:39 GMT-0400 (Eastern Daylight Time),images/bird-parade.png,10,NA,NA,That's a big ,No,1,3MDKGGG61QBTGEBQN7CYBT71GKD6TN,birds,margaret,3TPWUS5F8APDBWMEI5ZE8X2Y4W6WCT,NA,yes,This one is also in the parade.,prenominal,You say to your friend:,27,goose,,NA,NA,some_college,A29SMGPDP7K9NU,English,female,,NA,You see a parade of animals.,3,1566419319168,NA,images/goose.png,NA,1,,big,NA,main2
343,dog,Wed Aug 21 2019 14:08:31 GMT-0600 (Mountain Daylight Time),NA,10,warmup/great-dane.jpg,pug,This is a ,no,1,3IQ9O0AYW6N99Y6RP8LN8WX6PB8ITT,dogs,Jennifer,3UOUJI6MTE2OMQ84E1G04M2BKYNXU1,great dane,yes,Please label the pictures below.,NA,NA,36,NA,no,warmup/pug.jpg,dogs,higher_degree,A38Z5T2J8MFBL1,English,male,NA,dogs,NA,1,1566418111462,1,NA,This is a ,1,These are both,NA,dog,warmup1
343,pug,Wed Aug 21 2019 14:08:31 GMT-0600 (Mountain Daylight Time),NA,10,warmup/great-dane.jpg,pug,This is a ,no,1,3IQ9O0AYW6N99Y6RP8LN8WX6PB8ITT,dogs,Jennifer,3UOUJI6MTE2OMQ84E1G04M2BKYNXU1,great dane,yes,Please label the pictures below.,NA,NA,36,NA,no,warmup/pug.jpg,dogs,higher_degree,A38Z5T2J8MFBL1,English,male,NA,dogs,NA,1,1566418111462,2,NA,This is a ,1,These are both,NA,great daen,warmup1
343,pug,Wed Aug 21 2019 14:08:31 GMT-0600 (Mountain Daylight Time),NA,10,warmup/great-dane.jpg,pug,This is a ,no,1,3IQ9O0AYW6N99Y6RP8LN8WX6PB8ITT,dogs,Jennifer,3UOUJI6MTE2OMQ84E1G04M2BKYNXU1,great dane,yes,Please label the pictures below.,NA,NA,36,NA,no,warmup/pug.jpg,dogs,higher_degree,A38Z5T2J8MFBL1,English,male,NA,dogs,NA,1,1566418111462,3,NA,This is a ,1,These are both,NA,great dane,warmup1
343,tilapia,Wed Aug 21 2019 14:08:31 GMT-0600 (Mountain Daylight Time),NA,10,warmup/clownfish.jpg,tuna,This is a ,no,1,3IQ9O0AYW6N99Y6RP8LN8WX6PB8ITT,fish,Jennifer,3UOUJI6MTE2OMQ84E1G04M2BKYNXU1,clownfish,yes,Please label the pictures below.,NA,NA,36,NA,no,warmup/tuna.jpg,fishs,higher_degree,A38Z5T2J8MFBL1,English,male,NA,fish,NA,2,1566418111462,1,NA,This is a ,1,These are both,NA,electric fish,warmup1
343,tuna,Wed Aug 21 2019 14:08:31 GMT-0600 (Mountain Daylight Time),NA,10,warmup/clownfish.jpg,tuna,This is a ,no,1,3IQ9O0AYW6N99Y6RP8LN8WX6PB8ITT,fish,Jennifer,3UOUJI6MTE2OMQ84E1G04M2BKYNXU1,clownfish,yes,Please label the pictures below.,NA,NA,36,NA,no,warmup/tuna.jpg,fish,higher_degree,A38Z5T2J8MFBL1,English,male,NA,fish,NA,2,1566418111462,2,NA,This is a ,1,These are both,NA,clownfish,warmup1
343,puppy,Wed Aug 21 2019 14:08:31 GMT-0600 (Mountain Daylight Time),NA,10,warmup/doberman.png,chihuahua,This is a ,no,1,3IQ9O0AYW6N99Y6RP8LN8WX6PB8ITT,dogs,Jennifer,3UOUJI6MTE2OMQ84E1G04M2BKYNXU1,doberman,yes,Please label the pictures below.,NA,NA,36,NA,no,warmup/chihuahua.jpg,dogs,higher_degree,A38Z5T2J8MFBL1,English,male,NA,dogs,NA,3,1566418111462,1,NA,This is a ,1,These are both,NA,dog,warmup1
343,chihuahua,Wed Aug 21 2019 14:08:31 GMT-0600 (Mountain Daylight Time),NA,10,warmup/doberman.png,chihuahua,This is a ,no,1,3IQ9O0AYW6N99Y6RP8LN8WX6PB8ITT,dogs,Jennifer,3UOUJI6MTE2OMQ84E1G04M2BKYNXU1,doberman,yes,Please label the pictures below.,NA,NA,36,NA,no,warmup/chihuahua.jpg,dogs,higher_degree,A38Z5T2J8MFBL1,English,male,NA,dogs,NA,3,1566418111462,2,NA,This is a ,1,These are both,NA,doberman,warmup1
343,NA,Wed Aug 21 2019 14:08:31 GMT-0600 (Mountain Daylight Time),images/fish-parade2.png,10,NA,NA,That's a small ,no,1,3IQ9O0AYW6N99Y6RP8LN8WX6PB8ITT,fish,Jennifer,3UOUJI6MTE2OMQ84E1G04M2BKYNXU1,NA,yes,This one is also in the parade.,prenominal,You say to your friend:,36,fish,no,NA,NA,higher_degree,A38Z5T2J8MFBL1,English,male,,NA,You see a parade of animals.,1,1566418111462,NA,images/clownfish.png,NA,1,,small,NA,main1
343,NA,Wed Aug 21 2019 14:08:31 GMT-0600 (Mountain Daylight Time),images/dog-parade.png,10,NA,NA,That's a big ,no,1,3IQ9O0AYW6N99Y6RP8LN8WX6PB8ITT,dogs,Jennifer,3UOUJI6MTE2OMQ84E1G04M2BKYNXU1,NA,yes,This one is also in the parade.,prenominal,You say to your friend:,36,doberman,no,NA,NA,higher_degree,A38Z5T2J8MFBL1,English,male,,NA,You see a parade of animals.,2,1566418111462,NA,images/doberman.png,NA,1,,big,NA,main1
343,NA,Wed Aug 21 2019 14:08:31 GMT-0600 (Mountain Daylight Time),images/dog-parade2.png,10,NA,NA,That's a big ,no,1,3IQ9O0AYW6N99Y6RP8LN8WX6PB8ITT,dogs,Jennifer,3UOUJI6MTE2OMQ84E1G04M2BKYNXU1,NA,yes,This one is also in the parade.,prenominal,You say to your friend:,36,dog,no,NA,NA,higher_degree,A38Z5T2J8MFBL1,English,male,,NA,You see a parade of animals.,3,1566418111462,NA,images/great-dane.png,NA,1,,big,NA,main1
343,fish,Wed Aug 21 2019 14:08:31 GMT-0600 (Mountain Daylight Time),NA,10,warmup/goldfish.png,swordfish,This is a ,no,1,3IQ9O0AYW6N99Y6RP8LN8WX6PB8ITT,fish,Jennifer,3UOUJI6MTE2OMQ84E1G04M2BKYNXU1,goldfish,yes,Please label the pictures below.,NA,NA,36,NA,no,warmup/swordfish.jpg,fish,higher_degree,A38Z5T2J8MFBL1,English,male,NA,fish,NA,1,1566418111462,1,NA,This is a ,1,These are both,NA,fish,warmup2
343,swordfish,Wed Aug 21 2019 14:08:31 GMT-0600 (Mountain Daylight Time),NA,10,warmup/goldfish.png,swordfish,This is a ,no,1,3IQ9O0AYW6N99Y6RP8LN8WX6PB8ITT,fish,Jennifer,3UOUJI6MTE2OMQ84E1G04M2BKYNXU1,goldfish,yes,Please label the pictures below.,NA,NA,36,NA,no,warmup/swordfish.jpg,fish,higher_degree,A38Z5T2J8MFBL1,English,male,NA,fish,NA,1,1566418111462,2,NA,This is a ,1,These are both,NA,goldfish,warmup2
343,duck,Wed Aug 21 2019 14:08:31 GMT-0600 (Mountain Daylight Time),NA,10,warmup/canary.jpg,swan,This is a ,no,1,3IQ9O0AYW6N99Y6RP8LN8WX6PB8ITT,birds,Jennifer,3UOUJI6MTE2OMQ84E1G04M2BKYNXU1,canary,yes,Please label the pictures below.,NA,NA,36,NA,no,warmup/swan.jpg,bird,higher_degree,A38Z5T2J8MFBL1,English,male,NA,birds,NA,2,1566418111462,1,NA,This is a ,1,These are both,NA,bird,warmup2
343,swan,Wed Aug 21 2019 14:08:31 GMT-0600 (Mountain Daylight Time),NA,10,warmup/canary.jpg,swan,This is a ,no,1,3IQ9O0AYW6N99Y6RP8LN8WX6PB8ITT,birds,Jennifer,3UOUJI6MTE2OMQ84E1G04M2BKYNXU1,canary,yes,Please label the pictures below.,NA,NA,36,NA,no,warmup/swan.jpg,birds,higher_degree,A38Z5T2J8MFBL1,English,male,NA,birds,NA,2,1566418111462,2,NA,This is a ,1,These are both,NA,canary,warmup2
343,flower,Wed Aug 21 2019 14:08:31 GMT-0600 (Mountain Daylight Time),NA,10,warmup/peony.png,daisy,This is a ,no,1,3IQ9O0AYW6N99Y6RP8LN8WX6PB8ITT,flowers,Jennifer,3UOUJI6MTE2OMQ84E1G04M2BKYNXU1,peony,yes,Please label the pictures below.,NA,NA,36,NA,no,warmup/daisy.png,flowers,higher_degree,A38Z5T2J8MFBL1,English,male,NA,flowers,NA,3,1566418111462,1,NA,This is a ,1,These are both,NA,flower,warmup2
343,daisy,Wed Aug 21 2019 14:08:31 GMT-0600 (Mountain Daylight Time),NA,10,warmup/peony.png,daisy,This is a ,no,1,3IQ9O0AYW6N99Y6RP8LN8WX6PB8ITT,flowers,Jennifer,3UOUJI6MTE2OMQ84E1G04M2BKYNXU1,peony,yes,Please label the pictures below.,NA,NA,36,NA,no,warmup/daisy.png,flowers,higher_degree,A38Z5T2J8MFBL1,English,male,NA,flowers,NA,3,1566418111462,2,NA,This is a ,1,These are both,NA,peony,warmup2
343,NA,Wed Aug 21 2019 14:08:31 GMT-0600 (Mountain Daylight Time),images/flower-parade.png,10,NA,NA,That's a small ,no,1,3IQ9O0AYW6N99Y6RP8LN8WX6PB8ITT,flowers,Jennifer,3UOUJI6MTE2OMQ84E1G04M2BKYNXU1,NA,yes,This one is also in the collection.,prenominal,You say to your friend:,36,flowers,no,NA,NA,higher_degree,A38Z5T2J8MFBL1,English,male,,NA,You see a collection of plants.,1,1566418111462,NA,images/daisy.png,NA,1,,small,NA,main2
343,NA,Wed Aug 21 2019 14:08:31 GMT-0600 (Mountain Daylight Time),images/fish-parade.png,10,NA,NA,That's a big ,no,1,3IQ9O0AYW6N99Y6RP8LN8WX6PB8ITT,fish,Jennifer,3UOUJI6MTE2OMQ84E1G04M2BKYNXU1,NA,yes,This one is also in the parade.,prenominal,You say to your friend:,36,swordfish,no,NA,NA,higher_degree,A38Z5T2J8MFBL1,English,male,,NA,You see a parade of animals.,2,1566418111462,NA,images/swordfish.png,NA,1,,big,NA,main2
343,NA,Wed Aug 21 2019 14:08:31 GMT-0600 (Mountain Daylight Time),images/bird-parade3.png,10,NA,NA,That's a small ,no,1,3IQ9O0AYW6N99Y6RP8LN8WX6PB8ITT,birds,Jennifer,3UOUJI6MTE2OMQ84E1G04M2BKYNXU1,NA,yes,This one is also in the parade.,prenominal,You say to your friend:,36,canary,no,NA,NA,higher_degree,A38Z5T2J8MFBL1,English,male,,NA,You see a parade of animals.,3,1566418111462,NA,images/canary.png,NA,1,,small,NA,main2
342,tree,Wed Aug 21 2019 15:58:12 GMT-0400 (Eastern Daylight Time),NA,10,warmup/bonsai.jpg,redwood|sequoia,This is a ,no,2,3IQ9O0AYW6N99Y6RP8LN8WX6PB8ITT,trees,susan,3E4GGUZ1T9F9IE0VWYR589ZH5YIK2A,bonsai,yes,Please label the pictures below.,NA,NA,26,NA,,warmup/sequoia.jpg,trees,some_college,A2XMYHTHDZEM4U,english,female,NA,trees,NA,1,1566417492188,1,NA,This is a ,1.00,These are both,NA,tree,warmup1
342,redwood,Wed Aug 21 2019 15:58:12 GMT-0400 (Eastern Daylight Time),NA,10,warmup/bonsai.jpg,redwood|sequoia,This is a ,no,2,3IQ9O0AYW6N99Y6RP8LN8WX6PB8ITT,trees,susan,3E4GGUZ1T9F9IE0VWYR589ZH5YIK2A,bonsai,yes,Please label the pictures below.,NA,NA,26,NA,,warmup/sequoia.jpg,trees,some_college,A2XMYHTHDZEM4U,english,female,NA,trees,NA,1,1566417492188,2,NA,This is a ,1.00,These are both,NA,bonsai,warmup1
342,chihauhau,Wed Aug 21 2019 15:58:12 GMT-0400 (Eastern Daylight Time),NA,10,warmup/doberman.png,chihuahua,This is a ,no,2,3IQ9O0AYW6N99Y6RP8LN8WX6PB8ITT,dogs,susan,3E4GGUZ1T9F9IE0VWYR589ZH5YIK2A,doberman,yes,Please label the pictures below.,NA,NA,26,NA,,warmup/chihuahua.jpg,dogs,some_college,A2XMYHTHDZEM4U,english,female,NA,dogs,NA,2,1566417492188,1,NA,This is a ,1.00,These are both,NA,doberman,warmup1
342,chihuahua,Wed Aug 21 2019 15:58:12 GMT-0400 (Eastern Daylight Time),NA,10,warmup/doberman.png,chihuahua,This is a ,no,2,3IQ9O0AYW6N99Y6RP8LN8WX6PB8ITT,dogs,susan,3E4GGUZ1T9F9IE0VWYR589ZH5YIK2A,doberman,yes,Please label the pictures below.,NA,NA,26,NA,,warmup/chihuahua.jpg,dogs,some_college,A2XMYHTHDZEM4U,english,female,NA,dogs,NA,2,1566417492188,2,NA,This is a ,1.00,These are both,NA,doberman,warmup1
342,dove,Wed Aug 21 2019 15:58:12 GMT-0400 (Eastern Daylight Time),NA,10,warmup/canary.jpg,swan,This is a ,no,2,3IQ9O0AYW6N99Y6RP8LN8WX6PB8ITT,birds,susan,3E4GGUZ1T9F9IE0VWYR589ZH5YIK2A,canary,yes,Please label the pictures below.,NA,NA,26,NA,,warmup/swan.jpg,birds,some_college,A2XMYHTHDZEM4U,english,female,NA,birds,NA,3,1566417492188,1,NA,This is a ,1.00,These are both,NA,canary,warmup1
342,swan,Wed Aug 21 2019 15:58:12 GMT-0400 (Eastern Daylight Time),NA,10,warmup/canary.jpg,swan,This is a ,no,2,3IQ9O0AYW6N99Y6RP8LN8WX6PB8ITT,birds,susan,3E4GGUZ1T9F9IE0VWYR589ZH5YIK2A,canary,yes,Please label the pictures below.,NA,NA,26,NA,,warmup/swan.jpg,birds,some_college,A2XMYHTHDZEM4U,english,female,NA,birds,NA,3,1566417492188,2,NA,This is a ,1.00,These are both,NA,canary,warmup1
342,NA,Wed Aug 21 2019 15:58:12 GMT-0400 (Eastern Daylight Time),images/dog-parade.png,10,NA,NA,That's a big ,no,2,3IQ9O0AYW6N99Y6RP8LN8WX6PB8ITT,dogs,susan,3E4GGUZ1T9F9IE0VWYR589ZH5YIK2A,NA,yes,This one is also in the parade.,prenominal,You say to your friend:,26,doberman,,NA,NA,some_college,A2XMYHTHDZEM4U,english,female,,NA,You see a parade of animals.,1,1566417492188,NA,images/doberman.png,NA,1.00,,big,NA,main1
342,NA,Wed Aug 21 2019 15:58:12 GMT-0400 (Eastern Daylight Time),images/bird-parade3.png,10,NA,NA,That's a small ,no,2,3IQ9O0AYW6N99Y6RP8LN8WX6PB8ITT,birds,susan,3E4GGUZ1T9F9IE0VWYR589ZH5YIK2A,NA,yes,This one is also in the parade.,prenominal,You say to your friend:,26,canary,,NA,NA,some_college,A2XMYHTHDZEM4U,english,female,,NA,You see a parade of animals.,2,1566417492188,NA,images/canary.png,NA,1.00,,small,NA,main1
342,NA,Wed Aug 21 2019 15:58:12 GMT-0400 (Eastern Daylight Time),images/tree-parade.png,10,NA,NA,That's a big ,no,2,3IQ9O0AYW6N99Y6RP8LN8WX6PB8ITT,trees,susan,3E4GGUZ1T9F9IE0VWYR589ZH5YIK2A,NA,yes,This one is also in the landscape.,prenominal,You say to your friend:,26,redwood,,NA,NA,some_college,A2XMYHTHDZEM4U,english,female,,NA,You see the following items in a landscape.,3,1566417492188,NA,images/sequoia.png,NA,1.00,,big,NA,main1
342,tuna,Wed Aug 21 2019 15:58:12 GMT-0400 (Eastern Daylight Time),NA,10,warmup/clownfish.jpg,tuna,This is a ,no,2,3IQ9O0AYW6N99Y6RP8LN8WX6PB8ITT,fish,susan,3E4GGUZ1T9F9IE0VWYR589ZH5YIK2A,clownfish,yes,Please label the pictures below.,NA,NA,26,NA,,warmup/tuna.jpg,fish,some_college,A2XMYHTHDZEM4U,english,female,NA,fish,NA,1,1566417492188,1,NA,This is a ,1.00,These are both,NA,clown fish,warmup2
342,tuna,Wed Aug 21 2019 15:58:12 GMT-0400 (Eastern Daylight Time),NA,10,warmup/clownfish.jpg,tuna,This is a ,no,2,3IQ9O0AYW6N99Y6RP8LN8WX6PB8ITT,fish,susan,3E4GGUZ1T9F9IE0VWYR589ZH5YIK2A,clownfish,yes,Please label the pictures below.,NA,NA,26,NA,,warmup/tuna.jpg,fish,some_college,A2XMYHTHDZEM4U,english,female,NA,fish,NA,1,1566417492188,2,NA,This is a ,1.00,These are both,NA,clownfish,warmup2
342,carnation,Wed Aug 21 2019 15:58:12 GMT-0400 (Eastern Daylight Time),NA,10,warmup/peony.png,daisy,This is a ,no,2,3IQ9O0AYW6N99Y6RP8LN8WX6PB8ITT,flowers,susan,3E4GGUZ1T9F9IE0VWYR589ZH5YIK2A,peony,yes,Please label the pictures below.,NA,NA,26,NA,,warmup/daisy.png,flowers,some_college,A2XMYHTHDZEM4U,english,female,NA,flowers,NA,2,1566417492188,1,NA,This is a ,1.00,These are both,NA,rose,warmup2
342,daisy,Wed Aug 21 2019 15:58:12 GMT-0400 (Eastern Daylight Time),NA,10,warmup/peony.png,daisy,This is a ,no,2,3IQ9O0AYW6N99Y6RP8LN8WX6PB8ITT,flowers,susan,3E4GGUZ1T9F9IE0VWYR589ZH5YIK2A,peony,yes,Please label the pictures below.,NA,NA,26,NA,,warmup/daisy.png,flowers,some_college,A2XMYHTHDZEM4U,english,female,NA,flowers,NA,2,1566417492188,2,NA,This is a ,1.00,These are both,NA,peony,warmup2
342,goose,Wed Aug 21 2019 15:58:12 GMT-0400 (Eastern Daylight Time),NA,10,warmup/sparrow.jpg,goose,This is a ,no,2,3IQ9O0AYW6N99Y6RP8LN8WX6PB8ITT,birds,susan,3E4GGUZ1T9F9IE0VWYR589ZH5YIK2A,sparrow,yes,Please label the pictures below.,NA,NA,26,NA,,warmup/goose.png,birds,some_college,A2XMYHTHDZEM4U,english,female,NA,birds,NA,3,1566417492188,1,NA,This is a ,1.00,These are both,NA,sparrow,warmup2
342,NA,Wed Aug 21 2019 15:58:12 GMT-0400 (Eastern Daylight Time),images/bird-parade.png,10,NA,NA,That's a big ,no,2,3IQ9O0AYW6N99Y6RP8LN8WX6PB8ITT,birds,susan,3E4GGUZ1T9F9IE0VWYR589ZH5YIK2A,NA,yes,This one is also in the parade.,prenominal,You say to your friend:,26,goose,,NA,NA,some_college,A2XMYHTHDZEM4U,english,female,,NA,You see a parade of animals.,1,1566417492188,NA,images/goose.png,NA,1.00,,big,NA,main2
342,NA,Wed Aug 21 2019 15:58:12 GMT-0400 (Eastern Daylight Time),images/flower-parade.png,10,NA,NA,That's a small ,no,2,3IQ9O0AYW6N99Y6RP8LN8WX6PB8ITT,flowers,susan,3E4GGUZ1T9F9IE0VWYR589ZH5YIK2A,NA,yes,This one is also in the collection.,prenominal,You say to your friend:,26,daisy,,NA,NA,some_college,A2XMYHTHDZEM4U,english,female,,NA,You see a collection of plants.,2,1566417492188,NA,images/daisy.png,NA,1.00,,small,NA,main2
342,NA,Wed Aug 21 2019 15:58:12 GMT-0400 (Eastern Daylight Time),images/fish-parade2.png,10,NA,NA,That's a small ,no,2,3IQ9O0AYW6N99Y6RP8LN8WX6PB8ITT,fish,susan,3E4GGUZ1T9F9IE0VWYR589ZH5YIK2A,NA,yes,This one is also in the parade.,prenominal,You say to your friend:,26,clownfish,,NA,NA,some_college,A2XMYHTHDZEM4U,english,female,,NA,You see a parade of animals.,3,1566417492188,NA,images/clownfish.png,NA,1.00,,small,NA,main2
340,hummnig bird,Wed Aug 21 2019 14:58:55 GMT-0500 (Central Daylight Time),NA,10,warmup/eagle.jpg,hummingbird,This is a ,no,1,31MBOZ6PAOFUDICMOPNAB2PUIT2LCR,birds,elizabeth,3R5F3LQFV38IEGOMJXSC21QXACXOZC,eagle,yes,Please label the pictures below.,NA,NA,53,NA,,warmup/colibri.jpg,birds,graduated_college,A2QCMCFT08SA7X,English,male,NA,birds,NA,1,1566417535323,1,NA,This is an ,1.00,These are both,NA,eagle,warmup1
340,hummnigbird,Wed Aug 21 2019 14:58:55 GMT-0500 (Central Daylight Time),NA,10,warmup/eagle.jpg,hummingbird,This is a ,no,1,31MBOZ6PAOFUDICMOPNAB2PUIT2LCR,birds,elizabeth,3R5F3LQFV38IEGOMJXSC21QXACXOZC,eagle,yes,Please label the pictures below.,NA,NA,53,NA,,warmup/colibri.jpg,birds,graduated_college,A2QCMCFT08SA7X,English,male,NA,birds,NA,1,1566417535323,2,NA,This is an ,1.00,These are both,NA,eagle,warmup1
340,hummnigbird,Wed Aug 21 2019 14:58:55 GMT-0500 (Central Daylight Time),NA,10,warmup/eagle.jpg,hummingbird,This is a ,no,1,31MBOZ6PAOFUDICMOPNAB2PUIT2LCR,birds,elizabeth,3R5F3LQFV38IEGOMJXSC21QXACXOZC,eagle,yes,Please label the pictures below.,NA,NA,53,NA,,warmup/colibri.jpg,birds,graduated_college,A2QCMCFT08SA7X,English,male,NA,birds,NA,1,1566417535323,3,NA,This is an ,1.00,These are both,NA,eagle,warmup1
340,hummingbird,Wed Aug 21 2019 14:58:55 GMT-0500 (Central Daylight Time),NA,10,warmup/eagle.jpg,hummingbird,This is a ,no,1,31MBOZ6PAOFUDICMOPNAB2PUIT2LCR,birds,elizabeth,3R5F3LQFV38IEGOMJXSC21QXACXOZC,eagle,yes,Please label the pictures below.,NA,NA,53,NA,,warmup/colibri.jpg,birds,graduated_college,A2QCMCFT08SA7X,English,male,NA,birds,NA,1,1566417535323,4,NA,This is an ,1.00,These are both,NA,eagle,warmup1
340,daisy,Wed Aug 21 2019 14:58:55 GMT-0500 (Central Daylight Time),NA,10,warmup/sunflower.png,dandelion,This is a ,no,1,31MBOZ6PAOFUDICMOPNAB2PUIT2LCR,flowers,elizabeth,3R5F3LQFV38IEGOMJXSC21QXACXOZC,sunflower,yes,Please label the pictures below.,NA,NA,53,NA,,warmup/dandelion.jpg,flowers,graduated_college,A2QCMCFT08SA7X,English,male,NA,flowers,NA,2,1566417535323,1,NA,This is a ,1.00,These are both,NA,sunflower,warmup1
340,dandelion,Wed Aug 21 2019 14:58:55 GMT-0500 (Central Daylight Time),NA,10,warmup/sunflower.png,dandelion,This is a ,no,1,31MBOZ6PAOFUDICMOPNAB2PUIT2LCR,flowers,elizabeth,3R5F3LQFV38IEGOMJXSC21QXACXOZC,sunflower,yes,Please label the pictures below.,NA,NA,53,NA,,warmup/dandelion.jpg,flowers,graduated_college,A2QCMCFT08SA7X,English,male,NA,flowers,NA,2,1566417535323,2,NA,This is a ,1.00,These are both,NA,sunflower,warmup1
340,swan,Wed Aug 21 2019 14:58:55 GMT-0500 (Central Daylight Time),NA,10,warmup/canary.jpg,swan,This is a ,no,1,31MBOZ6PAOFUDICMOPNAB2PUIT2LCR,birds,elizabeth,3R5F3LQFV38IEGOMJXSC21QXACXOZC,canary,yes,Please label the pictures below.,NA,NA,53,NA,,warmup/swan.jpg,birds,graduated_college,A2QCMCFT08SA7X,English,male,NA,birds,NA,3,1566417535323,1,NA,This is a ,1.00,These are both,NA,canary,warmup1
340,NA,Wed Aug 21 2019 14:58:55 GMT-0500 (Central Daylight Time),images/bird-parade2.png,10,NA,NA,That's a big ,no,1,31MBOZ6PAOFUDICMOPNAB2PUIT2LCR,birds,elizabeth,3R5F3LQFV38IEGOMJXSC21QXACXOZC,NA,yes,This one is also in the parade.,prenominal,You say to your friend:,53,bird,,NA,NA,graduated_college,A2QCMCFT08SA7X,English,male,,NA,You see a parade of animals.,1,1566417535323,NA,images/eagle.png,NA,1.00,,big,NA,main1
340,NA,Wed Aug 21 2019 14:58:55 GMT-0500 (Central Daylight Time),images/flower-parade2.png,10,NA,NA,That's a small ,no,1,31MBOZ6PAOFUDICMOPNAB2PUIT2LCR,flowers,elizabeth,3R5F3LQFV38IEGOMJXSC21QXACXOZC,NA,yes,This one is also in the collection.,prenominal,You say to your friend:,53,flower,,NA,NA,graduated_college,A2QCMCFT08SA7X,English,male,,NA,You see a collection of plants.,2,1566417535323,NA,images/dandelion.png,NA,1.00,,small,NA,main1
340,NA,Wed Aug 21 2019 14:58:55 GMT-0500 (Central Daylight Time),images/bird-parade3.png,10,NA,NA,That's a small ,no,1,31MBOZ6PAOFUDICMOPNAB2PUIT2LCR,birds,elizabeth,3R5F3LQFV38IEGOMJXSC21QXACXOZC,NA,yes,This one is also in the parade.,prenominal,You say to your friend:,53,bird,,NA,NA,graduated_college,A2QCMCFT08SA7X,English,male,,NA,You see a parade of animals.,3,1566417535323,NA,images/canary.png,NA,1.00,,small,NA,main1
340,goose,Wed Aug 21 2019 14:58:55 GMT-0500 (Central Daylight Time),NA,10,warmup/sparrow.jpg,goose,This is a ,no,1,31MBOZ6PAOFUDICMOPNAB2PUIT2LCR,birds,elizabeth,3R5F3LQFV38IEGOMJXSC21QXACXOZC,sparrow,yes,Please label the pictures below.,NA,NA,53,NA,,warmup/goose.png,birds,graduated_college,A2QCMCFT08SA7X,English,male,NA,birds,NA,1,1566417535323,1,NA,This is a ,1.00,These are both,NA,sparrow,warmup2
340,danilion,Wed Aug 21 2019 14:58:55 GMT-0500 (Central Daylight Time),NA,10,warmup/peony.png,daisy,This is a ,no,1,31MBOZ6PAOFUDICMOPNAB2PUIT2LCR,flowers,elizabeth,3R5F3LQFV38IEGOMJXSC21QXACXOZC,peony,yes,Please label the pictures below.,NA,NA,53,NA,,warmup/daisy.png,flowers,graduated_college,A2QCMCFT08SA7X,English,male,NA,flowers,NA,2,1566417535323,1,NA,This is a ,1.00,These are both,NA,flower,warmup2
340,daisy,Wed Aug 21 2019 14:58:55 GMT-0500 (Central Daylight Time),NA,10,warmup/peony.png,daisy,This is a ,no,1,31MBOZ6PAOFUDICMOPNAB2PUIT2LCR,flowers,elizabeth,3R5F3LQFV38IEGOMJXSC21QXACXOZC,peony,yes,Please label the pictures below.,NA,NA,53,NA,,warmup/daisy.png,flowers,graduated_college,A2QCMCFT08SA7X,English,male,NA,flowers,NA,2,1566417535323,2,NA,This is a ,1.00,These are both,NA,peony,warmup2
340,swordfish,Wed Aug 21 2019 14:58:55 GMT-0500 (Central Daylight Time),NA,10,warmup/goldfish.png,swordfish,This is a ,no,1,31MBOZ6PAOFUDICMOPNAB2PUIT2LCR,fish,elizabeth,3R5F3LQFV38IEGOMJXSC21QXACXOZC,goldfish,yes,Please label the pictures below.,NA,NA,53,NA,,warmup/swordfish.jpg,fish,graduated_college,A2QCMCFT08SA7X,English,male,NA,fish,NA,3,1566417535323,1,NA,This is a ,1.00,These are both,NA,goldfish,warmup2
340,NA,Wed Aug 21 2019 14:58:55 GMT-0500 (Central Daylight Time),images/fish-parade.png,10,NA,NA,That's a big ,no,1,31MBOZ6PAOFUDICMOPNAB2PUIT2LCR,fish,elizabeth,3R5F3LQFV38IEGOMJXSC21QXACXOZC,NA,yes,This one is also in the parade.,prenominal,You say to your friend:,53,fish,,NA,NA,graduated_college,A2QCMCFT08SA7X,English,male,,NA,You see a parade of animals.,1,1566417535323,NA,images/swordfish.png,NA,1.00,,big,NA,main2
340,NA,Wed Aug 21 2019 14:58:55 GMT-0500 (Central Daylight Time),images/bird-parade.png,10,NA,NA,That's a small ,no,1,31MBOZ6PAOFUDICMOPNAB2PUIT2LCR,birds,elizabeth,3R5F3LQFV38IEGOMJXSC21QXACXOZC,NA,yes,This one is also in the parade.,prenominal,You say to your friend:,53,bird,,NA,NA,graduated_college,A2QCMCFT08SA7X,English,male,,NA,You see a parade of animals.,2,1566417535323,NA,images/sparrow.png,NA,1.00,,small,NA,main2
340,NA,Wed Aug 21 2019 14:58:55 GMT-0500 (Central Daylight Time),images/flower-parade.png,10,NA,NA,That's a big ,no,1,31MBOZ6PAOFUDICMOPNAB2PUIT2LCR,flowers,elizabeth,3R5F3LQFV38IEGOMJXSC21QXACXOZC,NA,yes,This one is also in the collection.,prenominal,You say to your friend:,53,flowers,,NA,NA,graduated_college,A2QCMCFT08SA7X,English,male,,NA,You see a collection of plants.,3,1566417535323,NA,images/peony.png,NA,1.00,,big,NA,main2
339,Chihuahua,Wed Aug 21 2019 15:42:56 GMT-0400 (Eastern Daylight Time),NA,10,warmup/doberman.png,chihuahua,This is a ,No,1,31MBOZ6PAOFUDICMOPNAB2PUIT2LCR,dogs,linda,3X1FV8S5JYFDDJ2EUHQ1CM4ZVFYVGU,doberman,yes,Please label the pictures below.,NA,NA,28,NA,It was good to complete this study.,warmup/chihuahua.jpg,dog,graduated_college,A309RFIHZPQ6GN,English,female,NA,dogs,NA,1,1566416577100,1,NA,This is a ,2,These are both,NA,Dobermann,warmup1
339,Chihuahua,Wed Aug 21 2019 15:42:56 GMT-0400 (Eastern Daylight Time),NA,10,warmup/doberman.png,chihuahua,This is a ,No,1,31MBOZ6PAOFUDICMOPNAB2PUIT2LCR,dogs,linda,3X1FV8S5JYFDDJ2EUHQ1CM4ZVFYVGU,doberman,yes,Please label the pictures below.,NA,NA,28,NA,It was good to complete this study.,warmup/chihuahua.jpg,dogs,graduated_college,A309RFIHZPQ6GN,English,female,NA,dogs,NA,1,1566416577100,2,NA,This is a ,2,These are both,NA,Dobermann,warmup1
339,Chihuahua,Wed Aug 21 2019 15:42:56 GMT-0400 (Eastern Daylight Time),NA,10,warmup/doberman.png,chihuahua,This is a ,No,1,31MBOZ6PAOFUDICMOPNAB2PUIT2LCR,dogs,linda,3X1FV8S5JYFDDJ2EUHQ1CM4ZVFYVGU,doberman,yes,Please label the pictures below.,NA,NA,28,NA,It was good to complete this study.,warmup/chihuahua.jpg,dogs,graduated_college,A309RFIHZPQ6GN,English,female,NA,dogs,NA,1,1566416577100,3,NA,This is a ,2,These are both,NA,Doberman,warmup1
339,Sequoia,Wed Aug 21 2019 15:42:56 GMT-0400 (Eastern Daylight Time),NA,10,warmup/bonsai.jpg,redwood|sequoia,This is a ,No,1,31MBOZ6PAOFUDICMOPNAB2PUIT2LCR,trees,linda,3X1FV8S5JYFDDJ2EUHQ1CM4ZVFYVGU,bonsai,yes,Please label the pictures below.,NA,NA,28,NA,It was good to complete this study.,warmup/sequoia.jpg,trees,graduated_college,A309RFIHZPQ6GN,English,female,NA,trees,NA,2,1566416577100,1,NA,This is a ,2,These are both,NA,Bonsai,warmup1
339,Goose,Wed Aug 21 2019 15:42:56 GMT-0400 (Eastern Daylight Time),NA,10,warmup/sparrow.jpg,goose,This is a ,No,1,31MBOZ6PAOFUDICMOPNAB2PUIT2LCR,birds,linda,3X1FV8S5JYFDDJ2EUHQ1CM4ZVFYVGU,sparrow,yes,Please label the pictures below.,NA,NA,28,NA,It was good to complete this study.,warmup/goose.png,birds,graduated_college,A309RFIHZPQ6GN,English,female,NA,birds,NA,3,1566416577100,1,NA,This is a ,2,These are both,NA,sparrow,warmup1
339,NA,Wed Aug 21 2019 15:42:56 GMT-0400 (Eastern Daylight Time),images/dog-parade.png,10,NA,NA,That's a big ,No,1,31MBOZ6PAOFUDICMOPNAB2PUIT2LCR,dogs,linda,3X1FV8S5JYFDDJ2EUHQ1CM4ZVFYVGU,NA,yes,This one is also in the parade.,prenominal,You say to your friend:,28,dogs,It was good to complete this study.,NA,NA,graduated_college,A309RFIHZPQ6GN,English,female,,NA,You see a parade of animals.,1,1566416577100,NA,images/doberman.png,NA,2,,big,NA,main1
339,NA,Wed Aug 21 2019 15:42:56 GMT-0400 (Eastern Daylight Time),images/tree-parade.png,10,NA,NA,That's a small ,No,1,31MBOZ6PAOFUDICMOPNAB2PUIT2LCR,trees,linda,3X1FV8S5JYFDDJ2EUHQ1CM4ZVFYVGU,NA,yes,This one is also in the landscape.,prenominal,You say to your friend:,28,trees,It was good to complete this study.,NA,NA,graduated_college,A309RFIHZPQ6GN,English,female,,NA,You see the following items in a landscape.,2,1566416577100,NA,images/bonsai.png,NA,2,,small,NA,main1
339,NA,Wed Aug 21 2019 15:42:56 GMT-0400 (Eastern Daylight Time),images/bird-parade.png,10,NA,NA,That's a big ,No,1,31MBOZ6PAOFUDICMOPNAB2PUIT2LCR,birds,linda,3X1FV8S5JYFDDJ2EUHQ1CM4ZVFYVGU,NA,yes,This one is also in the parade.,prenominal,You say to your friend:,28,birds,It was good to complete this study.,NA,NA,graduated_college,A309RFIHZPQ6GN,English,female,,NA,You see a parade of animals.,3,1566416577100,NA,images/goose.png,NA,2,,big,NA,main1
339,flower,Wed Aug 21 2019 15:42:56 GMT-0400 (Eastern Daylight Time),NA,10,warmup/sunflower.png,dandelion,This is a ,No,1,31MBOZ6PAOFUDICMOPNAB2PUIT2LCR,flowers,linda,3X1FV8S5JYFDDJ2EUHQ1CM4ZVFYVGU,sunflower,yes,Please label the pictures below.,NA,NA,28,NA,It was good to complete this study.,warmup/dandelion.jpg,flowers,graduated_college,A309RFIHZPQ6GN,English,female,NA,flowers,NA,1,1566416577100,1,NA,This is a ,2,These are both,NA,Dandelion,warmup2
339,dandelion,Wed Aug 21 2019 15:42:56 GMT-0400 (Eastern Daylight Time),NA,10,warmup/sunflower.png,dandelion,This is a ,No,1,31MBOZ6PAOFUDICMOPNAB2PUIT2LCR,flowers,linda,3X1FV8S5JYFDDJ2EUHQ1CM4ZVFYVGU,sunflower,yes,Please label the pictures below.,NA,NA,28,NA,It was good to complete this study.,warmup/dandelion.jpg,flowers,graduated_college,A309RFIHZPQ6GN,English,female,NA,flowers,NA,1,1566416577100,2,NA,This is a ,2,These are both,NA,sunflower,warmup2
339,Anna's Hummingbird,Wed Aug 21 2019 15:42:56 GMT-0400 (Eastern Daylight Time),NA,10,warmup/eagle.jpg,hummingbird,This is a ,No,1,31MBOZ6PAOFUDICMOPNAB2PUIT2LCR,birds,linda,3X1FV8S5JYFDDJ2EUHQ1CM4ZVFYVGU,eagle,yes,Please label the pictures below.,NA,NA,28,NA,It was good to complete this study.,warmup/colibri.jpg,birds,graduated_college,A309RFIHZPQ6GN,English,female,NA,birds,NA,2,1566416577100,1,NA,This is an ,2,These are both,NA,eagle,warmup2
339,hummingbird,Wed Aug 21 2019 15:42:56 GMT-0400 (Eastern Daylight Time),NA,10,warmup/eagle.jpg,hummingbird,This is a ,No,1,31MBOZ6PAOFUDICMOPNAB2PUIT2LCR,birds,linda,3X1FV8S5JYFDDJ2EUHQ1CM4ZVFYVGU,eagle,yes,Please label the pictures below.,NA,NA,28,NA,It was good to complete this study.,warmup/colibri.jpg,birds,graduated_college,A309RFIHZPQ6GN,English,female,NA,birds,NA,2,1566416577100,2,NA,This is an ,2,These are both,NA,eagle,warmup2
339,tuna,Wed Aug 21 2019 15:42:56 GMT-0400 (Eastern Daylight Time),NA,10,warmup/clownfish.jpg,tuna,This is a ,No,1,31MBOZ6PAOFUDICMOPNAB2PUIT2LCR,fish,linda,3X1FV8S5JYFDDJ2EUHQ1CM4ZVFYVGU,clownfish,yes,Please label the pictures below.,NA,NA,28,NA,It was good to complete this study.,warmup/tuna.jpg,fishes,graduated_college,A309RFIHZPQ6GN,English,female,NA,fish,NA,3,1566416577100,1,NA,This is a ,2,These are both,NA,Clownfish,warmup2
339,tuna,Wed Aug 21 2019 15:42:56 GMT-0400 (Eastern Daylight Time),NA,10,warmup/clownfish.jpg,tuna,This is a ,No,1,31MBOZ6PAOFUDICMOPNAB2PUIT2LCR,fish,linda,3X1FV8S5JYFDDJ2EUHQ1CM4ZVFYVGU,clownfish,yes,Please label the pictures below.,NA,NA,28,NA,It was good to complete this study.,warmup/tuna.jpg,fish,graduated_college,A309RFIHZPQ6GN,English,female,NA,fish,NA,3,1566416577100,2,NA,This is a ,2,These are both,NA,Clownfish,warmup2
339,NA,Wed Aug 21 2019 15:42:56 GMT-0400 (Eastern Daylight Time),images/bird-parade2.png,10,NA,NA,That's a small ,No,1,31MBOZ6PAOFUDICMOPNAB2PUIT2LCR,birds,linda,3X1FV8S5JYFDDJ2EUHQ1CM4ZVFYVGU,NA,yes,This one is also in the parade.,prenominal,You say to your friend:,28,birds,It was good to complete this study.,NA,NA,graduated_college,A309RFIHZPQ6GN,English,female,,NA,You see a parade of animals.,1,1566416577100,NA,images/hummingbird.png,NA,2,,small,NA,main2
339,NA,Wed Aug 21 2019 15:42:56 GMT-0400 (Eastern Daylight Time),images/flower-parade2.png,10,NA,NA,That's a big ,No,1,31MBOZ6PAOFUDICMOPNAB2PUIT2LCR,flowers,linda,3X1FV8S5JYFDDJ2EUHQ1CM4ZVFYVGU,NA,yes,This one is also in the collection.,prenominal,You say to your friend:,28,flowers,It was good to complete this study.,NA,NA,graduated_college,A309RFIHZPQ6GN,English,female,,NA,You see a collection of plants.,2,1566416577100,NA,images/sunflower.png,NA,2,,big,NA,main2
339,NA,Wed Aug 21 2019 15:42:56 GMT-0400 (Eastern Daylight Time),images/fish-parade2.png,10,NA,NA,That's a small ,No,1,31MBOZ6PAOFUDICMOPNAB2PUIT2LCR,fish,linda,3X1FV8S5JYFDDJ2EUHQ1CM4ZVFYVGU,NA,yes,This one is also in the parade.,prenominal,You say to your friend:,28,fish,It was good to complete this study.,NA,NA,graduated_college,A309RFIHZPQ6GN,English,female,,NA,You see a parade of animals.,3,1566416577100,NA,images/clownfish.png,NA,2,,small,NA,main2
336,tuna,Wed Aug 21 2019 14:37:30 GMT-0500 (Central Daylight Time),NA,10,warmup/clownfish.jpg,tuna,This is a ,None,1,31MBOZ6PAOFUDICMOPNAB2PUIT2LCR,fish,Barbara,3VW6495TLKOU34IJTYZRQLFXISPYY3,clownfish,yes,Please label the pictures below.,NA,NA,29,NA,None,warmup/tuna.jpg,fish,graduated_college,A23YJXEE2AXR3Y,English,male,NA,fish,NA,1,1566416250538,1,NA,This is a ,1.00,These are both,NA,clownfish,warmup1
336,swordfish,Wed Aug 21 2019 14:37:30 GMT-0500 (Central Daylight Time),NA,10,warmup/goldfish.png,swordfish,This is a ,None,1,31MBOZ6PAOFUDICMOPNAB2PUIT2LCR,fish,Barbara,3VW6495TLKOU34IJTYZRQLFXISPYY3,goldfish,yes,Please label the pictures below.,NA,NA,29,NA,None,warmup/swordfish.jpg,fish,graduated_college,A23YJXEE2AXR3Y,English,male,NA,fish,NA,2,1566416250538,1,NA,This is a ,1.00,These are both,NA,goldfish,warmup1
336,chihuahua,Wed Aug 21 2019 14:37:30 GMT-0500 (Central Daylight Time),NA,10,warmup/doberman.png,chihuahua,This is a ,None,1,31MBOZ6PAOFUDICMOPNAB2PUIT2LCR,dogs,Barbara,3VW6495TLKOU34IJTYZRQLFXISPYY3,doberman,yes,Please label the pictures below.,NA,NA,29,NA,None,warmup/chihuahua.jpg,dog,graduated_college,A23YJXEE2AXR3Y,English,male,NA,dogs,NA,3,1566416250538,1,NA,This is a ,1.00,These are both,NA,doberman,warmup1
336,chihuahua,Wed Aug 21 2019 14:37:30 GMT-0500 (Central Daylight Time),NA,10,warmup/doberman.png,chihuahua,This is a ,None,1,31MBOZ6PAOFUDICMOPNAB2PUIT2LCR,dogs,Barbara,3VW6495TLKOU34IJTYZRQLFXISPYY3,doberman,yes,Please label the pictures below.,NA,NA,29,NA,None,warmup/chihuahua.jpg,dogs,graduated_college,A23YJXEE2AXR3Y,English,male,NA,dogs,NA,3,1566416250538,2,NA,This is a ,1.00,These are both,NA,doberman,warmup1
336,NA,Wed Aug 21 2019 14:37:30 GMT-0500 (Central Daylight Time),images/fish-parade2.png,10,NA,NA,That's a big ,None,1,31MBOZ6PAOFUDICMOPNAB2PUIT2LCR,fish,Barbara,3VW6495TLKOU34IJTYZRQLFXISPYY3,NA,yes,This one is also in the parade.,prenominal,You say to your friend:,29,tuna,None,NA,NA,graduated_college,A23YJXEE2AXR3Y,English,male,,NA,You see a parade of animals.,1,1566416250538,NA,images/tuna.png,NA,1.00,,big,NA,main1
336,NA,Wed Aug 21 2019 14:37:30 GMT-0500 (Central Daylight Time),images/dog-parade.png,10,NA,NA,That's a small ,None,1,31MBOZ6PAOFUDICMOPNAB2PUIT2LCR,dogs,Barbara,3VW6495TLKOU34IJTYZRQLFXISPYY3,NA,yes,This one is also in the parade.,prenominal,You say to your friend:,29,chihuahua,None,NA,NA,graduated_college,A23YJXEE2AXR3Y,English,male,,NA,You see a parade of animals.,2,1566416250538,NA,images/chihuahua.png,NA,1.00,,small,NA,main1
336,NA,Wed Aug 21 2019 14:37:30 GMT-0500 (Central Daylight Time),images/fish-parade.png,10,NA,NA,That's a small ,None,1,31MBOZ6PAOFUDICMOPNAB2PUIT2LCR,fish,Barbara,3VW6495TLKOU34IJTYZRQLFXISPYY3,NA,yes,This one is also in the parade.,prenominal,You say to your friend:,29,goldfish,None,NA,NA,graduated_college,A23YJXEE2AXR3Y,English,male,,NA,You see a parade of animals.,3,1566416250538,NA,images/goldfish.png,NA,1.00,,small,NA,main1
336,goose,Wed Aug 21 2019 14:37:30 GMT-0500 (Central Daylight Time),NA,10,warmup/canary.jpg,swan,This is a ,None,1,31MBOZ6PAOFUDICMOPNAB2PUIT2LCR,birds,Barbara,3VW6495TLKOU34IJTYZRQLFXISPYY3,canary,yes,Please label the pictures below.,NA,NA,29,NA,None,warmup/swan.jpg,birds,graduated_college,A23YJXEE2AXR3Y,English,male,NA,birds,NA,1,1566416250538,1,NA,This is a ,1.00,These are both,NA,parakeet,warmup2
336,swan,Wed Aug 21 2019 14:37:30 GMT-0500 (Central Daylight Time),NA,10,warmup/canary.jpg,swan,This is a ,None,1,31MBOZ6PAOFUDICMOPNAB2PUIT2LCR,birds,Barbara,3VW6495TLKOU34IJTYZRQLFXISPYY3,canary,yes,Please label the pictures below.,NA,NA,29,NA,None,warmup/swan.jpg,birds,graduated_college,A23YJXEE2AXR3Y,English,male,NA,birds,NA,1,1566416250538,2,NA,This is a ,1.00,These are both,NA,canary,warmup2
336,goose,Wed Aug 21 2019 14:37:30 GMT-0500 (Central Daylight Time),NA,10,warmup/sparrow.jpg,goose,This is a ,None,1,31MBOZ6PAOFUDICMOPNAB2PUIT2LCR,birds,Barbara,3VW6495TLKOU34IJTYZRQLFXISPYY3,sparrow,yes,Please label the pictures below.,NA,NA,29,NA,None,warmup/goose.png,birds,graduated_college,A23YJXEE2AXR3Y,English,male,NA,birds,NA,2,1566416250538,1,NA,This is a ,1.00,These are both,NA,robin,warmup2
336,goose,Wed Aug 21 2019 14:37:30 GMT-0500 (Central Daylight Time),NA,10,warmup/sparrow.jpg,goose,This is a ,None,1,31MBOZ6PAOFUDICMOPNAB2PUIT2LCR,birds,Barbara,3VW6495TLKOU34IJTYZRQLFXISPYY3,sparrow,yes,Please label the pictures below.,NA,NA,29,NA,None,warmup/goose.png,birds,graduated_college,A23YJXEE2AXR3Y,English,male,NA,birds,NA,2,1566416250538,2,NA,This is a ,1.00,These are both,NA,sparrow,warmup2
336,hummingbird,Wed Aug 21 2019 14:37:30 GMT-0500 (Central Daylight Time),NA,10,warmup/eagle.jpg,hummingbird,This is a ,None,1,31MBOZ6PAOFUDICMOPNAB2PUIT2LCR,birds,Barbara,3VW6495TLKOU34IJTYZRQLFXISPYY3,eagle,yes,Please label the pictures below.,NA,NA,29,NA,None,warmup/colibri.jpg,birds,graduated_college,A23YJXEE2AXR3Y,English,male,NA,birds,NA,3,1566416250538,1,NA,This is an ,1.00,These are both,NA,eagle,warmup2
336,NA,Wed Aug 21 2019 14:37:30 GMT-0500 (Central Daylight Time),images/bird-parade3.png,10,NA,NA,That's a big ,None,1,31MBOZ6PAOFUDICMOPNAB2PUIT2LCR,birds,Barbara,3VW6495TLKOU34IJTYZRQLFXISPYY3,NA,yes,This one is also in the parade.,prenominal,You say to your friend:,29,swan,None,NA,NA,graduated_college,A23YJXEE2AXR3Y,English,male,,NA,You see a parade of animals.,1,1566416250538,NA,images/swan.png,NA,1.00,,big,NA,main2
336,NA,Wed Aug 21 2019 14:37:30 GMT-0500 (Central Daylight Time),images/bird-parade.png,10,NA,NA,That's a big ,None,1,31MBOZ6PAOFUDICMOPNAB2PUIT2LCR,birds,Barbara,3VW6495TLKOU34IJTYZRQLFXISPYY3,NA,yes,This one is also in the parade.,prenominal,You say to your friend:,29,goose,None,NA,NA,graduated_college,A23YJXEE2AXR3Y,English,male,,NA,You see a parade of animals.,2,1566416250538,NA,images/goose.png,NA,1.00,,big,NA,main2
336,NA,Wed Aug 21 2019 14:37:30 GMT-0500 (Central Daylight Time),images/bird-parade2.png,10,NA,NA,That's a small ,None,1,31MBOZ6PAOFUDICMOPNAB2PUIT2LCR,birds,Barbara,3VW6495TLKOU34IJTYZRQLFXISPYY3,NA,yes,This one is also in the parade.,prenominal,You say to your friend:,29,hummingbird,None,NA,NA,graduated_college,A23YJXEE2AXR3Y,English,male,,NA,You see a parade of animals.,3,1566416250538,NA,images/hummingbird.png,NA,1.00,,small,NA,main2
335,Redwood,Wed Aug 21 2019 14:36:28 GMT-0500 (Central Daylight Time),NA,10,warmup/bonsai.jpg,redwood|sequoia,This is a ,"Nope, everything seemed to work fine.",1,3MDKGGG61QBTGEBQN7CYBT71GKD6TN,trees,Linda,3NPI0JQDAPT4D4ROS5G95DU6ZL0PT7,bonsai,yes,Please label the pictures below.,NA,NA,28,NA,"I *think* I did the experiment correctly, or at least I hope so.  I assume seeing the different way people choose to answer is the point?",warmup/sequoia.jpg,trees,graduated_high_school,A2IP3ZAFYGV8M9,English,male,NA,trees,NA,1,1566416188741,1,NA,This is a ,1.00,These are both,NA,Bonsai,warmup1
335,swordfish,Wed Aug 21 2019 14:36:28 GMT-0500 (Central Daylight Time),NA,10,warmup/goldfish.png,swordfish,This is a ,"Nope, everything seemed to work fine.",1,3MDKGGG61QBTGEBQN7CYBT71GKD6TN,fish,Linda,3NPI0JQDAPT4D4ROS5G95DU6ZL0PT7,goldfish,yes,Please label the pictures below.,NA,NA,28,NA,"I *think* I did the experiment correctly, or at least I hope so.  I assume seeing the different way people choose to answer is the point?",warmup/swordfish.jpg,fish,graduated_high_school,A2IP3ZAFYGV8M9,English,male,NA,fish,NA,2,1566416188741,1,NA,This is a ,1.00,These are both,NA,goldfish,warmup1
335,goose,Wed Aug 21 2019 14:36:28 GMT-0500 (Central Daylight Time),NA,10,warmup/sparrow.jpg,goose,This is a ,"Nope, everything seemed to work fine.",1,3MDKGGG61QBTGEBQN7CYBT71GKD6TN,birds,Linda,3NPI0JQDAPT4D4ROS5G95DU6ZL0PT7,sparrow,yes,Please label the pictures below.,NA,NA,28,NA,"I *think* I did the experiment correctly, or at least I hope so.  I assume seeing the different way people choose to answer is the point?",warmup/goose.png,birds,graduated_high_school,A2IP3ZAFYGV8M9,English,male,NA,birds,NA,3,1566416188741,1,NA,This is a ,1.00,These are both,NA,sparrow,warmup1
335,NA,Wed Aug 21 2019 14:36:28 GMT-0500 (Central Daylight Time),images/tree-parade.png,10,NA,NA,That's a small ,"Nope, everything seemed to work fine.",1,3MDKGGG61QBTGEBQN7CYBT71GKD6TN,trees,Linda,3NPI0JQDAPT4D4ROS5G95DU6ZL0PT7,NA,yes,This one is also in the landscape.,prenominal,You say to your friend:,28,tree,"I *think* I did the experiment correctly, or at least I hope so.  I assume seeing the different way people choose to answer is the point?",NA,NA,graduated_high_school,A2IP3ZAFYGV8M9,English,male,,NA,You see the following items in a landscape.,1,1566416188741,NA,images/bonsai.png,NA,1.00,,small,NA,main1
335,NA,Wed Aug 21 2019 14:36:28 GMT-0500 (Central Daylight Time),images/fish-parade.png,10,NA,NA,That's a big ,"Nope, everything seemed to work fine.",1,3MDKGGG61QBTGEBQN7CYBT71GKD6TN,fish,Linda,3NPI0JQDAPT4D4ROS5G95DU6ZL0PT7,NA,yes,This one is also in the parade.,prenominal,You say to your friend:,28,swordfish,"I *think* I did the experiment correctly, or at least I hope so.  I assume seeing the different way people choose to answer is the point?",NA,NA,graduated_high_school,A2IP3ZAFYGV8M9,English,male,,NA,You see a parade of animals.,2,1566416188741,NA,images/swordfish.png,NA,1.00,,big,NA,main1
335,NA,Wed Aug 21 2019 14:36:28 GMT-0500 (Central Daylight Time),images/bird-parade.png,10,NA,NA,That's a big ,"Nope, everything seemed to work fine.",1,3MDKGGG61QBTGEBQN7CYBT71GKD6TN,birds,Linda,3NPI0JQDAPT4D4ROS5G95DU6ZL0PT7,NA,yes,This one is also in the parade.,prenominal,You say to your friend:,28,goose,"I *think* I did the experiment correctly, or at least I hope so.  I assume seeing the different way people choose to answer is the point?",NA,NA,graduated_high_school,A2IP3ZAFYGV8M9,English,male,,NA,You see a parade of animals.,3,1566416188741,NA,images/goose.png,NA,1.00,,big,NA,main1
335,pug,Wed Aug 21 2019 14:36:28 GMT-0500 (Central Daylight Time),NA,10,warmup/great-dane.jpg,pug,This is a ,"Nope, everything seemed to work fine.",1,3MDKGGG61QBTGEBQN7CYBT71GKD6TN,dogs,Linda,3NPI0JQDAPT4D4ROS5G95DU6ZL0PT7,great dane,yes,Please label the pictures below.,NA,NA,28,NA,"I *think* I did the experiment correctly, or at least I hope so.  I assume seeing the different way people choose to answer is the point?",warmup/pug.jpg,dogs,graduated_high_school,A2IP3ZAFYGV8M9,English,male,NA,dogs,NA,1,1566416188741,1,NA,This is a ,1.00,These are both,NA,great dane,warmup2
335,swan,Wed Aug 21 2019 14:36:28 GMT-0500 (Central Daylight Time),NA,10,warmup/canary.jpg,swan,This is a ,"Nope, everything seemed to work fine.",1,3MDKGGG61QBTGEBQN7CYBT71GKD6TN,birds,Linda,3NPI0JQDAPT4D4ROS5G95DU6ZL0PT7,canary,yes,Please label the pictures below.,NA,NA,28,NA,"I *think* I did the experiment correctly, or at least I hope so.  I assume seeing the different way people choose to answer is the point?",warmup/swan.jpg,birds,graduated_high_school,A2IP3ZAFYGV8M9,English,male,NA,birds,NA,2,1566416188741,1,NA,This is a ,1.00,These are both,NA,finch,warmup2
335,swan,Wed Aug 21 2019 14:36:28 GMT-0500 (Central Daylight Time),NA,10,warmup/canary.jpg,swan,This is a ,"Nope, everything seemed to work fine.",1,3MDKGGG61QBTGEBQN7CYBT71GKD6TN,birds,Linda,3NPI0JQDAPT4D4ROS5G95DU6ZL0PT7,canary,yes,Please label the pictures below.,NA,NA,28,NA,"I *think* I did the experiment correctly, or at least I hope so.  I assume seeing the different way people choose to answer is the point?",warmup/swan.jpg,birds,graduated_high_school,A2IP3ZAFYGV8M9,English,male,NA,birds,NA,2,1566416188741,2,NA,This is a ,1.00,These are both,NA,canary,warmup2
335,dandelion,Wed Aug 21 2019 14:36:28 GMT-0500 (Central Daylight Time),NA,10,warmup/sunflower.png,dandelion,This is a ,"Nope, everything seemed to work fine.",1,3MDKGGG61QBTGEBQN7CYBT71GKD6TN,flowers,Linda,3NPI0JQDAPT4D4ROS5G95DU6ZL0PT7,sunflower,yes,Please label the pictures below.,NA,NA,28,NA,"I *think* I did the experiment correctly, or at least I hope so.  I assume seeing the different way people choose to answer is the point?",warmup/dandelion.jpg,flowers,graduated_high_school,A2IP3ZAFYGV8M9,English,male,NA,flowers,NA,3,1566416188741,1,NA,This is a ,1.00,These are both,NA,sunflower,warmup2
335,NA,Wed Aug 21 2019 14:36:28 GMT-0500 (Central Daylight Time),images/flower-parade2.png,10,NA,NA,That's a small ,"Nope, everything seemed to work fine.",1,3MDKGGG61QBTGEBQN7CYBT71GKD6TN,flowers,Linda,3NPI0JQDAPT4D4ROS5G95DU6ZL0PT7,NA,yes,This one is also in the collection.,prenominal,You say to your friend:,28,dandelion,"I *think* I did the experiment correctly, or at least I hope so.  I assume seeing the different way people choose to answer is the point?",NA,NA,graduated_high_school,A2IP3ZAFYGV8M9,English,male,,NA,You see a collection of plants.,1,1566416188741,NA,images/dandelion.png,NA,1.00,,small,NA,main2
335,NA,Wed Aug 21 2019 14:36:28 GMT-0500 (Central Daylight Time),images/bird-parade3.png,10,NA,NA,That's a big ,"Nope, everything seemed to work fine.",1,3MDKGGG61QBTGEBQN7CYBT71GKD6TN,birds,Linda,3NPI0JQDAPT4D4ROS5G95DU6ZL0PT7,NA,yes,This one is also in the parade.,prenominal,You say to your friend:,28,swan,"I *think* I did the experiment correctly, or at least I hope so.  I assume seeing the different way people choose to answer is the point?",NA,NA,graduated_high_school,A2IP3ZAFYGV8M9,English,male,,NA,You see a parade of animals.,2,1566416188741,NA,images/swan.png,NA,1.00,,big,NA,main2
335,NA,Wed Aug 21 2019 14:36:28 GMT-0500 (Central Daylight Time),images/dog-parade2.png,10,NA,NA,That's a small ,"Nope, everything seemed to work fine.",1,3MDKGGG61QBTGEBQN7CYBT71GKD6TN,dogs,Linda,3NPI0JQDAPT4D4ROS5G95DU6ZL0PT7,NA,yes,This one is also in the parade.,prenominal,You say to your friend:,28,pug,"I *think* I did the experiment correctly, or at least I hope so.  I assume seeing the different way people choose to answer is the point?",NA,NA,graduated_high_school,A2IP3ZAFYGV8M9,English,male,,NA,You see a parade of animals.,3,1566416188741,NA,images/pug.png,NA,1.00,,small,NA,main2
333,little dog,Wed Aug 21 2019 15:30:13 GMT-0400 (Eastern Daylight Time),NA,10,warmup/doberman.png,chihuahua,This is a ,No,2,31MBOZ6PAOFUDICMOPNAB2PUIT2LCR,dogs,sarah,33OOO72IVI9LJFIKN0U3LDVZ02FCTA,doberman,yes,Please label the pictures below.,NA,NA,41,NA,NA,warmup/chihuahua.jpg,dogs,some_high_school,A1FVKX628ROWCW,English,female,NA,dogs,NA,1,1566415813796,1,NA,This is a ,1,These are both,NA,big dog,warmup1
333,chihuahua,Wed Aug 21 2019 15:30:13 GMT-0400 (Eastern Daylight Time),NA,10,warmup/doberman.png,chihuahua,This is a ,No,2,31MBOZ6PAOFUDICMOPNAB2PUIT2LCR,dogs,sarah,33OOO72IVI9LJFIKN0U3LDVZ02FCTA,doberman,yes,Please label the pictures below.,NA,NA,41,NA,NA,warmup/chihuahua.jpg,dogs,some_high_school,A1FVKX628ROWCW,English,female,NA,dogs,NA,1,1566415813796,2,NA,This is a ,1,These are both,NA,doberman,warmup1
333,pug,Wed Aug 21 2019 15:30:13 GMT-0400 (Eastern Daylight Time),NA,10,warmup/great-dane.jpg,pug,This is a ,No,2,31MBOZ6PAOFUDICMOPNAB2PUIT2LCR,dogs,sarah,33OOO72IVI9LJFIKN0U3LDVZ02FCTA,great dane,yes,Please label the pictures below.,NA,NA,41,NA,NA,warmup/pug.jpg,dogs,some_high_school,A1FVKX628ROWCW,English,female,NA,dogs,NA,2,1566415813796,1,NA,This is a ,1,These are both,NA,dog,warmup1
333,pug,Wed Aug 21 2019 15:30:13 GMT-0400 (Eastern Daylight Time),NA,10,warmup/great-dane.jpg,pug,This is a ,No,2,31MBOZ6PAOFUDICMOPNAB2PUIT2LCR,dogs,sarah,33OOO72IVI9LJFIKN0U3LDVZ02FCTA,great dane,yes,Please label the pictures below.,NA,NA,41,NA,NA,warmup/pug.jpg,dogs,some_high_school,A1FVKX628ROWCW,English,female,NA,dogs,NA,2,1566415813796,2,NA,This is a ,1,These are both,NA,great dane,warmup1
333,duck,Wed Aug 21 2019 15:30:13 GMT-0400 (Eastern Daylight Time),NA,10,warmup/sparrow.jpg,goose,This is a ,No,2,31MBOZ6PAOFUDICMOPNAB2PUIT2LCR,birds,sarah,33OOO72IVI9LJFIKN0U3LDVZ02FCTA,sparrow,yes,Please label the pictures below.,NA,NA,41,NA,NA,warmup/goose.png,birds,some_high_school,A1FVKX628ROWCW,English,female,NA,birds,NA,3,1566415813796,1,NA,This is a ,1,These are both,NA,bird,warmup1
333,goose,Wed Aug 21 2019 15:30:13 GMT-0400 (Eastern Daylight Time),NA,10,warmup/sparrow.jpg,goose,This is a ,No,2,31MBOZ6PAOFUDICMOPNAB2PUIT2LCR,birds,sarah,33OOO72IVI9LJFIKN0U3LDVZ02FCTA,sparrow,yes,Please label the pictures below.,NA,NA,41,NA,NA,warmup/goose.png,birds,some_high_school,A1FVKX628ROWCW,English,female,NA,birds,NA,3,1566415813796,2,NA,This is a ,1,These are both,NA,sparrow,warmup1
333,NA,Wed Aug 21 2019 15:30:13 GMT-0400 (Eastern Daylight Time),images/dog-parade2.png,10,NA,NA,That's a big ,No,2,31MBOZ6PAOFUDICMOPNAB2PUIT2LCR,dogs,sarah,33OOO72IVI9LJFIKN0U3LDVZ02FCTA,NA,yes,This one is also in the parade.,prenominal,You say to your friend:,41,great dane,NA,NA,NA,some_high_school,A1FVKX628ROWCW,English,female,,NA,You see a parade of animals.,1,1566415813796,NA,images/great-dane.png,NA,1,,big,NA,main1
333,NA,Wed Aug 21 2019 15:30:13 GMT-0400 (Eastern Daylight Time),images/dog-parade.png,10,NA,NA,That's a small ,No,2,31MBOZ6PAOFUDICMOPNAB2PUIT2LCR,dogs,sarah,33OOO72IVI9LJFIKN0U3LDVZ02FCTA,NA,yes,This one is also in the parade.,prenominal,You say to your friend:,41,chihuahua,NA,NA,NA,some_high_school,A1FVKX628ROWCW,English,female,,NA,You see a parade of animals.,2,1566415813796,NA,images/chihuahua.png,NA,1,,small,NA,main1
333,NA,Wed Aug 21 2019 15:30:13 GMT-0400 (Eastern Daylight Time),images/bird-parade.png,10,NA,NA,That's a small ,No,2,31MBOZ6PAOFUDICMOPNAB2PUIT2LCR,birds,sarah,33OOO72IVI9LJFIKN0U3LDVZ02FCTA,NA,yes,This one is also in the parade.,prenominal,You say to your friend:,41,sparrow,NA,NA,NA,some_high_school,A1FVKX628ROWCW,English,female,,NA,You see a parade of animals.,3,1566415813796,NA,images/sparrow.png,NA,1,,small,NA,main1
333,hummingbird,Wed Aug 21 2019 15:30:13 GMT-0400 (Eastern Daylight Time),NA,10,warmup/eagle.jpg,hummingbird,This is a ,No,2,31MBOZ6PAOFUDICMOPNAB2PUIT2LCR,birds,sarah,33OOO72IVI9LJFIKN0U3LDVZ02FCTA,eagle,yes,Please label the pictures below.,NA,NA,41,NA,NA,warmup/colibri.jpg,birds,some_high_school,A1FVKX628ROWCW,English,female,NA,birds,NA,1,1566415813796,1,NA,This is an ,1,These are both,NA,eagle,warmup2
333,tarp,Wed Aug 21 2019 15:30:13 GMT-0400 (Eastern Daylight Time),NA,10,warmup/clownfish.jpg,tuna,This is a ,No,2,31MBOZ6PAOFUDICMOPNAB2PUIT2LCR,fish,sarah,33OOO72IVI9LJFIKN0U3LDVZ02FCTA,clownfish,yes,Please label the pictures below.,NA,NA,41,NA,NA,warmup/tuna.jpg,fish,some_high_school,A1FVKX628ROWCW,English,female,NA,fish,NA,2,1566415813796,1,NA,This is a ,1,These are both,NA,clownfish,warmup2
333,tuna,Wed Aug 21 2019 15:30:13 GMT-0400 (Eastern Daylight Time),NA,10,warmup/clownfish.jpg,tuna,This is a ,No,2,31MBOZ6PAOFUDICMOPNAB2PUIT2LCR,fish,sarah,33OOO72IVI9LJFIKN0U3LDVZ02FCTA,clownfish,yes,Please label the pictures below.,NA,NA,41,NA,NA,warmup/tuna.jpg,fish,some_high_school,A1FVKX628ROWCW,English,female,NA,fish,NA,2,1566415813796,2,NA,This is a ,1,These are both,NA,clownfish,warmup2
333,daisy,Wed Aug 21 2019 15:30:13 GMT-0400 (Eastern Daylight Time),NA,10,warmup/sunflower.png,dandelion,This is a ,No,2,31MBOZ6PAOFUDICMOPNAB2PUIT2LCR,flowers,sarah,33OOO72IVI9LJFIKN0U3LDVZ02FCTA,sunflower,yes,Please label the pictures below.,NA,NA,41,NA,NA,warmup/dandelion.jpg,flowers,some_high_school,A1FVKX628ROWCW,English,female,NA,flowers,NA,3,1566415813796,1,NA,This is a ,1,These are both,NA,sunflower,warmup2
333,dandelion,Wed Aug 21 2019 15:30:13 GMT-0400 (Eastern Daylight Time),NA,10,warmup/sunflower.png,dandelion,This is a ,No,2,31MBOZ6PAOFUDICMOPNAB2PUIT2LCR,flowers,sarah,33OOO72IVI9LJFIKN0U3LDVZ02FCTA,sunflower,yes,Please label the pictures below.,NA,NA,41,NA,NA,warmup/dandelion.jpg,flowers,some_high_school,A1FVKX628ROWCW,English,female,NA,flowers,NA,3,1566415813796,2,NA,This is a ,1,These are both,NA,sunflower,warmup2
333,NA,Wed Aug 21 2019 15:30:13 GMT-0400 (Eastern Daylight Time),images/fish-parade2.png,10,NA,NA,That's a big ,No,2,31MBOZ6PAOFUDICMOPNAB2PUIT2LCR,fish,sarah,33OOO72IVI9LJFIKN0U3LDVZ02FCTA,NA,yes,This one is also in the parade.,prenominal,You say to your friend:,41,tuna,NA,NA,NA,some_high_school,A1FVKX628ROWCW,English,female,,NA,You see a parade of animals.,1,1566415813796,NA,images/tuna.png,NA,1,,big,NA,main2
333,NA,Wed Aug 21 2019 15:30:13 GMT-0400 (Eastern Daylight Time),images/flower-parade2.png,10,NA,NA,That's a small ,No,2,31MBOZ6PAOFUDICMOPNAB2PUIT2LCR,flowers,sarah,33OOO72IVI9LJFIKN0U3LDVZ02FCTA,NA,yes,This one is also in the collection.,prenominal,You say to your friend:,41,dandelion,NA,NA,NA,some_high_school,A1FVKX628ROWCW,English,female,,NA,You see a collection of plants.,2,1566415813796,NA,images/dandelion.png,NA,1,,small,NA,main2
333,NA,Wed Aug 21 2019 15:30:13 GMT-0400 (Eastern Daylight Time),images/bird-parade2.png,10,NA,NA,That's a big ,No,2,31MBOZ6PAOFUDICMOPNAB2PUIT2LCR,birds,sarah,33OOO72IVI9LJFIKN0U3LDVZ02FCTA,NA,yes,This one is also in the parade.,prenominal,You say to your friend:,41,eagle,NA,NA,NA,some_high_school,A1FVKX628ROWCW,English,female,,NA,You see a parade of animals.,3,1566415813796,NA,images/eagle.png,NA,1,,big,NA,main2
332,swordfish,Wed Aug 21 2019 15:32:37 GMT-0400 (Eastern Daylight Time),NA,10,warmup/goldfish.png,swordfish,This is a ,No,2,3IQ9O0AYW6N99Y6RP8LN8WX6PB8ITT,fish,mary,3VNL7UK1XG7SMR2UE2K4TJG2XFFTFA,goldfish,,Please label the pictures below.,NA,NA,,NA,This was fun and enjoyable thank you!,warmup/swordfish.jpg,fish,some_college,A2VFEDAK5C1E1O,English,male,NA,fish,NA,1,1566415957400,1,NA,This is a ,1.00,These are both,NA,goldfish,warmup1
332,dandelion,Wed Aug 21 2019 15:32:37 GMT-0400 (Eastern Daylight Time),NA,10,warmup/sunflower.png,dandelion,This is a ,No,2,3IQ9O0AYW6N99Y6RP8LN8WX6PB8ITT,flowers,mary,3VNL7UK1XG7SMR2UE2K4TJG2XFFTFA,sunflower,,Please label the pictures below.,NA,NA,,NA,This was fun and enjoyable thank you!,warmup/dandelion.jpg,flowers,some_college,A2VFEDAK5C1E1O,English,male,NA,flowers,NA,2,1566415957400,1,NA,This is a ,1.00,These are both,NA,sunflower,warmup1
332,hummingbird,Wed Aug 21 2019 15:32:37 GMT-0400 (Eastern Daylight Time),NA,10,warmup/eagle.jpg,hummingbird,This is a ,No,2,3IQ9O0AYW6N99Y6RP8LN8WX6PB8ITT,birds,mary,3VNL7UK1XG7SMR2UE2K4TJG2XFFTFA,eagle,,Please label the pictures below.,NA,NA,,NA,This was fun and enjoyable thank you!,warmup/colibri.jpg,bird,some_college,A2VFEDAK5C1E1O,English,male,NA,birds,NA,3,1566415957400,1,NA,This is an ,1.00,These are both,NA,eagle,warmup1
332,hummingbird,Wed Aug 21 2019 15:32:37 GMT-0400 (Eastern Daylight Time),NA,10,warmup/eagle.jpg,hummingbird,This is a ,No,2,3IQ9O0AYW6N99Y6RP8LN8WX6PB8ITT,birds,mary,3VNL7UK1XG7SMR2UE2K4TJG2XFFTFA,eagle,,Please label the pictures below.,NA,NA,,NA,This was fun and enjoyable thank you!,warmup/colibri.jpg,birds,some_college,A2VFEDAK5C1E1O,English,male,NA,birds,NA,3,1566415957400,2,NA,This is an ,1.00,These are both,NA,eagle,warmup1
332,NA,Wed Aug 21 2019 15:32:37 GMT-0400 (Eastern Daylight Time),images/fish-parade.png,10,NA,NA,That's a small ,No,2,3IQ9O0AYW6N99Y6RP8LN8WX6PB8ITT,fish,mary,3VNL7UK1XG7SMR2UE2K4TJG2XFFTFA,NA,,This one is also in the parade.,prenominal,You say to your friend:,,fish,This was fun and enjoyable thank you!,NA,NA,some_college,A2VFEDAK5C1E1O,English,male,,NA,You see a parade of animals.,1,1566415957400,NA,images/goldfish.png,NA,1.00,,small,NA,main1
332,NA,Wed Aug 21 2019 15:32:37 GMT-0400 (Eastern Daylight Time),images/flower-parade2.png,10,NA,NA,That's a big ,No,2,3IQ9O0AYW6N99Y6RP8LN8WX6PB8ITT,flowers,mary,3VNL7UK1XG7SMR2UE2K4TJG2XFFTFA,NA,,This one is also in the collection.,prenominal,You say to your friend:,,sunflower,This was fun and enjoyable thank you!,NA,NA,some_college,A2VFEDAK5C1E1O,English,male,,NA,You see a collection of plants.,2,1566415957400,NA,images/sunflower.png,NA,1.00,,big,NA,main1
332,NA,Wed Aug 21 2019 15:32:37 GMT-0400 (Eastern Daylight Time),images/bird-parade2.png,10,NA,NA,That's a big ,No,2,3IQ9O0AYW6N99Y6RP8LN8WX6PB8ITT,birds,mary,3VNL7UK1XG7SMR2UE2K4TJG2XFFTFA,NA,,This one is also in the parade.,prenominal,You say to your friend:,,eagle,This was fun and enjoyable thank you!,NA,NA,some_college,A2VFEDAK5C1E1O,English,male,,NA,You see a parade of animals.,3,1566415957400,NA,images/eagle.png,NA,1.00,,big,NA,main1
332,goose,Wed Aug 21 2019 15:32:37 GMT-0400 (Eastern Daylight Time),NA,10,warmup/sparrow.jpg,goose,This is a ,No,2,3IQ9O0AYW6N99Y6RP8LN8WX6PB8ITT,birds,mary,3VNL7UK1XG7SMR2UE2K4TJG2XFFTFA,sparrow,,Please label the pictures below.,NA,NA,,NA,This was fun and enjoyable thank you!,warmup/goose.png,birds,some_college,A2VFEDAK5C1E1O,English,male,NA,birds,NA,1,1566415957400,1,NA,This is a ,1.00,These are both,NA,bird,warmup2
332,goose,Wed Aug 21 2019 15:32:37 GMT-0400 (Eastern Daylight Time),NA,10,warmup/sparrow.jpg,goose,This is a ,No,2,3IQ9O0AYW6N99Y6RP8LN8WX6PB8ITT,birds,mary,3VNL7UK1XG7SMR2UE2K4TJG2XFFTFA,sparrow,,Please label the pictures below.,NA,NA,,NA,This was fun and enjoyable thank you!,warmup/goose.png,birds,some_college,A2VFEDAK5C1E1O,English,male,NA,birds,NA,1,1566415957400,2,NA,This is a ,1.00,These are both,NA,sparrow,warmup2
332,flower,Wed Aug 21 2019 15:32:37 GMT-0400 (Eastern Daylight Time),NA,10,warmup/peony.png,daisy,This is a ,No,2,3IQ9O0AYW6N99Y6RP8LN8WX6PB8ITT,flowers,mary,3VNL7UK1XG7SMR2UE2K4TJG2XFFTFA,peony,,Please label the pictures below.,NA,NA,,NA,This was fun and enjoyable thank you!,warmup/daisy.png,flowers,some_college,A2VFEDAK5C1E1O,English,male,NA,flowers,NA,2,1566415957400,1,NA,This is a ,1.00,These are both,NA,rose,warmup2
332,daisy,Wed Aug 21 2019 15:32:37 GMT-0400 (Eastern Daylight Time),NA,10,warmup/peony.png,daisy,This is a ,No,2,3IQ9O0AYW6N99Y6RP8LN8WX6PB8ITT,flowers,mary,3VNL7UK1XG7SMR2UE2K4TJG2XFFTFA,peony,,Please label the pictures below.,NA,NA,,NA,This was fun and enjoyable thank you!,warmup/daisy.png,flowers,some_college,A2VFEDAK5C1E1O,English,male,NA,flowers,NA,2,1566415957400,2,NA,This is a ,1.00,These are both,NA,peony,warmup2
332,chiuahua,Wed Aug 21 2019 15:32:37 GMT-0400 (Eastern Daylight Time),NA,10,warmup/doberman.png,chihuahua,This is a ,No,2,3IQ9O0AYW6N99Y6RP8LN8WX6PB8ITT,dogs,mary,3VNL7UK1XG7SMR2UE2K4TJG2XFFTFA,doberman,,Please label the pictures below.,NA,NA,,NA,This was fun and enjoyable thank you!,warmup/chihuahua.jpg,dogs,some_college,A2VFEDAK5C1E1O,English,male,NA,dogs,NA,3,1566415957400,1,NA,This is a ,1.00,These are both,NA,doberman,warmup2
332,chihuahua,Wed Aug 21 2019 15:32:37 GMT-0400 (Eastern Daylight Time),NA,10,warmup/doberman.png,chihuahua,This is a ,No,2,3IQ9O0AYW6N99Y6RP8LN8WX6PB8ITT,dogs,mary,3VNL7UK1XG7SMR2UE2K4TJG2XFFTFA,doberman,,Please label the pictures below.,NA,NA,,NA,This was fun and enjoyable thank you!,warmup/chihuahua.jpg,dogs,some_college,A2VFEDAK5C1E1O,English,male,NA,dogs,NA,3,1566415957400,2,NA,This is a ,1.00,These are both,NA,doberman,warmup2
332,NA,Wed Aug 21 2019 15:32:37 GMT-0400 (Eastern Daylight Time),images/bird-parade.png,10,NA,NA,That's a small ,No,2,3IQ9O0AYW6N99Y6RP8LN8WX6PB8ITT,birds,mary,3VNL7UK1XG7SMR2UE2K4TJG2XFFTFA,NA,,This one is also in the parade.,prenominal,You say to your friend:,,bird,This was fun and enjoyable thank you!,NA,NA,some_college,A2VFEDAK5C1E1O,English,male,,NA,You see a parade of animals.,1,1566415957400,NA,images/sparrow.png,NA,1.00,,small,NA,main2
332,NA,Wed Aug 21 2019 15:32:37 GMT-0400 (Eastern Daylight Time),images/flower-parade.png,10,NA,NA,That's a small ,No,2,3IQ9O0AYW6N99Y6RP8LN8WX6PB8ITT,flowers,mary,3VNL7UK1XG7SMR2UE2K4TJG2XFFTFA,NA,,This one is also in the collection.,prenominal,You say to your friend:,,flower,This was fun and enjoyable thank you!,NA,NA,some_college,A2VFEDAK5C1E1O,English,male,,NA,You see a collection of plants.,2,1566415957400,NA,images/daisy.png,NA,1.00,,small,NA,main2
332,NA,Wed Aug 21 2019 15:32:37 GMT-0400 (Eastern Daylight Time),images/dog-parade.png,10,NA,NA,That's a big ,No,2,3IQ9O0AYW6N99Y6RP8LN8WX6PB8ITT,dogs,mary,3VNL7UK1XG7SMR2UE2K4TJG2XFFTFA,NA,,This one is also in the parade.,prenominal,You say to your friend:,,doberman,This was fun and enjoyable thank you!,NA,NA,some_college,A2VFEDAK5C1E1O,English,male,,NA,You see a parade of animals.,3,1566415957400,NA,images/doberman.png,NA,1.00,,big,NA,main2
331,dog,Wed Aug 21 2019 15:29:44 GMT-0400 (Eastern Daylight Time),NA,10,warmup/doberman.png,chihuahua,This is a ,"No, I had no issues whatsoever",1,3MDKGGG61QBTGEBQN7CYBT71GKD6TN,dogs,patricia,3UOUJI6MTE2OMQ84E1G04M2BKY9UXK,doberman,yes,Please label the pictures below.,NA,NA,28,NA,,warmup/chihuahua.jpg,dogs,some_college,A1SNC8UL8YFRH5,English,male,NA,dogs,NA,1,1566415784525,1,NA,This is a ,1,These are both,NA,dog,warmup1
331,dog,Wed Aug 21 2019 15:29:44 GMT-0400 (Eastern Daylight Time),NA,10,warmup/doberman.png,chihuahua,This is a ,"No, I had no issues whatsoever",1,3MDKGGG61QBTGEBQN7CYBT71GKD6TN,dogs,patricia,3UOUJI6MTE2OMQ84E1G04M2BKY9UXK,doberman,yes,Please label the pictures below.,NA,NA,28,NA,,warmup/chihuahua.jpg,dogs,some_college,A1SNC8UL8YFRH5,English,male,NA,dogs,NA,1,1566415784525,2,NA,This is a ,1,These are both,NA,dog,warmup1
331,chihuahua,Wed Aug 21 2019 15:29:44 GMT-0400 (Eastern Daylight Time),NA,10,warmup/doberman.png,chihuahua,This is a ,"No, I had no issues whatsoever",1,3MDKGGG61QBTGEBQN7CYBT71GKD6TN,dogs,patricia,3UOUJI6MTE2OMQ84E1G04M2BKY9UXK,doberman,yes,Please label the pictures below.,NA,NA,28,NA,,warmup/chihuahua.jpg,dogs,some_college,A1SNC8UL8YFRH5,English,male,NA,dogs,NA,1,1566415784525,3,NA,This is a ,1,These are both,NA,doberman,warmup1
331,pug,Wed Aug 21 2019 15:29:44 GMT-0400 (Eastern Daylight Time),NA,10,warmup/great-dane.jpg,pug,This is a ,"No, I had no issues whatsoever",1,3MDKGGG61QBTGEBQN7CYBT71GKD6TN,dogs,patricia,3UOUJI6MTE2OMQ84E1G04M2BKY9UXK,great dane,yes,Please label the pictures below.,NA,NA,28,NA,,warmup/pug.jpg,dogs,some_college,A1SNC8UL8YFRH5,English,male,NA,dogs,NA,2,1566415784525,1,NA,This is a ,1,These are both,NA,great dane,warmup1
331,hummingbird,Wed Aug 21 2019 15:29:44 GMT-0400 (Eastern Daylight Time),NA,10,warmup/eagle.jpg,hummingbird,This is a ,"No, I had no issues whatsoever",1,3MDKGGG61QBTGEBQN7CYBT71GKD6TN,birds,patricia,3UOUJI6MTE2OMQ84E1G04M2BKY9UXK,eagle,yes,Please label the pictures below.,NA,NA,28,NA,,warmup/colibri.jpg,birds,some_college,A1SNC8UL8YFRH5,English,male,NA,birds,NA,3,1566415784525,1,NA,This is an ,1,These are both,NA,eagle,warmup1
331,NA,Wed Aug 21 2019 15:29:44 GMT-0400 (Eastern Daylight Time),images/dog-parade.png,10,NA,NA,That's a big ,"No, I had no issues whatsoever",1,3MDKGGG61QBTGEBQN7CYBT71GKD6TN,dogs,patricia,3UOUJI6MTE2OMQ84E1G04M2BKY9UXK,NA,yes,This one is also in the parade.,prenominal,You say to your friend:,28,dog,,NA,NA,some_college,A1SNC8UL8YFRH5,English,male,,NA,You see a parade of animals.,1,1566415784525,NA,images/doberman.png,NA,1,,big,NA,main1
331,NA,Wed Aug 21 2019 15:29:44 GMT-0400 (Eastern Daylight Time),images/dog-parade2.png,10,NA,NA,That's a small ,"No, I had no issues whatsoever",1,3MDKGGG61QBTGEBQN7CYBT71GKD6TN,dogs,patricia,3UOUJI6MTE2OMQ84E1G04M2BKY9UXK,NA,yes,This one is also in the parade.,prenominal,You say to your friend:,28,dog,,NA,NA,some_college,A1SNC8UL8YFRH5,English,male,,NA,You see a parade of animals.,2,1566415784525,NA,images/pug.png,NA,1,,small,NA,main1
331,NA,Wed Aug 21 2019 15:29:44 GMT-0400 (Eastern Daylight Time),images/bird-parade2.png,10,NA,NA,That's a small ,"No, I had no issues whatsoever",1,3MDKGGG61QBTGEBQN7CYBT71GKD6TN,birds,patricia,3UOUJI6MTE2OMQ84E1G04M2BKY9UXK,NA,yes,This one is also in the parade.,prenominal,You say to your friend:,28,bird,,NA,NA,some_college,A1SNC8UL8YFRH5,English,male,,NA,You see a parade of animals.,3,1566415784525,NA,images/hummingbird.png,NA,1,,small,NA,main1
331,oak,Wed Aug 21 2019 15:29:44 GMT-0400 (Eastern Daylight Time),NA,10,warmup/bonsai.jpg,redwood|sequoia,This is a ,"No, I had no issues whatsoever",1,3MDKGGG61QBTGEBQN7CYBT71GKD6TN,trees,patricia,3UOUJI6MTE2OMQ84E1G04M2BKY9UXK,bonsai,yes,Please label the pictures below.,NA,NA,28,NA,,warmup/sequoia.jpg,trees,some_college,A1SNC8UL8YFRH5,English,male,NA,trees,NA,1,1566415784525,1,NA,This is a ,1,These are both,NA,sapling,warmup2
331,redwood,Wed Aug 21 2019 15:29:44 GMT-0400 (Eastern Daylight Time),NA,10,warmup/bonsai.jpg,redwood|sequoia,This is a ,"No, I had no issues whatsoever",1,3MDKGGG61QBTGEBQN7CYBT71GKD6TN,trees,patricia,3UOUJI6MTE2OMQ84E1G04M2BKY9UXK,bonsai,yes,Please label the pictures below.,NA,NA,28,NA,,warmup/sequoia.jpg,trees,some_college,A1SNC8UL8YFRH5,English,male,NA,trees,NA,1,1566415784525,2,NA,This is a ,1,These are both,NA,bonsai,warmup2
331,swordfish,Wed Aug 21 2019 15:29:44 GMT-0400 (Eastern Daylight Time),NA,10,warmup/goldfish.png,swordfish,This is a ,"No, I had no issues whatsoever",1,3MDKGGG61QBTGEBQN7CYBT71GKD6TN,fish,patricia,3UOUJI6MTE2OMQ84E1G04M2BKY9UXK,goldfish,yes,Please label the pictures below.,NA,NA,28,NA,,warmup/swordfish.jpg,fish,some_college,A1SNC8UL8YFRH5,English,male,NA,fish,NA,2,1566415784525,1,NA,This is a ,1,These are both,NA,goldfish,warmup2
331,swan,Wed Aug 21 2019 15:29:44 GMT-0400 (Eastern Daylight Time),NA,10,warmup/canary.jpg,swan,This is a ,"No, I had no issues whatsoever",1,3MDKGGG61QBTGEBQN7CYBT71GKD6TN,birds,patricia,3UOUJI6MTE2OMQ84E1G04M2BKY9UXK,canary,yes,Please label the pictures below.,NA,NA,28,NA,,warmup/swan.jpg,birds,some_college,A1SNC8UL8YFRH5,English,male,NA,birds,NA,3,1566415784525,1,NA,This is a ,1,These are both,NA,canary,warmup2
331,NA,Wed Aug 21 2019 15:29:44 GMT-0400 (Eastern Daylight Time),images/fish-parade.png,10,NA,NA,That's a big ,"No, I had no issues whatsoever",1,3MDKGGG61QBTGEBQN7CYBT71GKD6TN,fish,patricia,3UOUJI6MTE2OMQ84E1G04M2BKY9UXK,NA,yes,This one is also in the parade.,prenominal,You say to your friend:,28,fish,,NA,NA,some_college,A1SNC8UL8YFRH5,English,male,,NA,You see a parade of animals.,1,1566415784525,NA,images/swordfish.png,NA,1,,big,NA,main2
331,NA,Wed Aug 21 2019 15:29:44 GMT-0400 (Eastern Daylight Time),images/tree-parade.png,10,NA,NA,That's a small ,"No, I had no issues whatsoever",1,3MDKGGG61QBTGEBQN7CYBT71GKD6TN,trees,patricia,3UOUJI6MTE2OMQ84E1G04M2BKY9UXK,NA,yes,This one is also in the landscape.,prenominal,You say to your friend:,28,tree,,NA,NA,some_college,A1SNC8UL8YFRH5,English,male,,NA,You see the following items in a landscape.,2,1566415784525,NA,images/bonsai.png,NA,1,,small,NA,main2
331,NA,Wed Aug 21 2019 15:29:44 GMT-0400 (Eastern Daylight Time),images/bird-parade3.png,10,NA,NA,That's a big ,"No, I had no issues whatsoever",1,3MDKGGG61QBTGEBQN7CYBT71GKD6TN,birds,patricia,3UOUJI6MTE2OMQ84E1G04M2BKY9UXK,NA,yes,This one is also in the parade.,prenominal,You say to your friend:,28,bird,,NA,NA,some_college,A1SNC8UL8YFRH5,English,male,,NA,You see a parade of animals.,3,1566415784525,NA,images/swan.png,NA,1,,big,NA,main2
329,goose,Wed Aug 21 2019 15:20:58 GMT-0400 (Eastern Daylight Time),NA,10,warmup/sparrow.jpg,goose,This is a ,No,1,31MBOZ6PAOFUDICMOPNAB2PUIT2LCR,birds,patricia,3MMN5BL1W0STTKWHLAIQ6WWD0HC3M8,sparrow,yes,Please label the pictures below.,NA,NA,32,NA,N/A,warmup/goose.png,birds,graduated_college,A3TK7HVFEKB00R,English,male,NA,birds,NA,1,1566415258412,1,NA,This is a ,2.00,These are both,NA,sparrow,warmup1
329,dandelion,Wed Aug 21 2019 15:20:58 GMT-0400 (Eastern Daylight Time),NA,10,warmup/sunflower.png,dandelion,This is a ,No,1,31MBOZ6PAOFUDICMOPNAB2PUIT2LCR,flowers,patricia,3MMN5BL1W0STTKWHLAIQ6WWD0HC3M8,sunflower,yes,Please label the pictures below.,NA,NA,32,NA,N/A,warmup/dandelion.jpg,plants,graduated_college,A3TK7HVFEKB00R,English,male,NA,flowers,NA,2,1566415258412,1,NA,This is a ,2.00,These are both,NA,sunflower,warmup1
329,dandelion,Wed Aug 21 2019 15:20:58 GMT-0400 (Eastern Daylight Time),NA,10,warmup/sunflower.png,dandelion,This is a ,No,1,31MBOZ6PAOFUDICMOPNAB2PUIT2LCR,flowers,patricia,3MMN5BL1W0STTKWHLAIQ6WWD0HC3M8,sunflower,yes,Please label the pictures below.,NA,NA,32,NA,N/A,warmup/dandelion.jpg,flowers,graduated_college,A3TK7HVFEKB00R,English,male,NA,flowers,NA,2,1566415258412,2,NA,This is a ,2.00,These are both,NA,sunflower,warmup1
329,swan,Wed Aug 21 2019 15:20:58 GMT-0400 (Eastern Daylight Time),NA,10,warmup/canary.jpg,swan,This is a ,No,1,31MBOZ6PAOFUDICMOPNAB2PUIT2LCR,birds,patricia,3MMN5BL1W0STTKWHLAIQ6WWD0HC3M8,canary,yes,Please label the pictures below.,NA,NA,32,NA,N/A,warmup/swan.jpg,birds,graduated_college,A3TK7HVFEKB00R,English,male,NA,birds,NA,3,1566415258412,1,NA,This is a ,2.00,These are both,NA,canary,warmup1
329,NA,Wed Aug 21 2019 15:20:58 GMT-0400 (Eastern Daylight Time),images/bird-parade.png,10,NA,NA,That's a big ,No,1,31MBOZ6PAOFUDICMOPNAB2PUIT2LCR,birds,patricia,3MMN5BL1W0STTKWHLAIQ6WWD0HC3M8,NA,yes,This one is also in the parade.,prenominal,You say to your friend:,32,goose,N/A,NA,NA,graduated_college,A3TK7HVFEKB00R,English,male,,NA,You see a parade of animals.,1,1566415258412,NA,images/goose.png,NA,2.00,,big,NA,main1
329,NA,Wed Aug 21 2019 15:20:58 GMT-0400 (Eastern Daylight Time),images/flower-parade2.png,10,NA,NA,That's a big ,No,1,31MBOZ6PAOFUDICMOPNAB2PUIT2LCR,flowers,patricia,3MMN5BL1W0STTKWHLAIQ6WWD0HC3M8,NA,yes,This one is also in the collection.,prenominal,You say to your friend:,32,sunflower,N/A,NA,NA,graduated_college,A3TK7HVFEKB00R,English,male,,NA,You see a collection of plants.,2,1566415258412,NA,images/sunflower.png,NA,2.00,,big,NA,main1
329,NA,Wed Aug 21 2019 15:20:58 GMT-0400 (Eastern Daylight Time),images/bird-parade3.png,10,NA,NA,That's a small ,No,1,31MBOZ6PAOFUDICMOPNAB2PUIT2LCR,birds,patricia,3MMN5BL1W0STTKWHLAIQ6WWD0HC3M8,NA,yes,This one is also in the parade.,prenominal,You say to your friend:,32,canary,N/A,NA,NA,graduated_college,A3TK7HVFEKB00R,English,male,,NA,You see a parade of animals.,3,1566415258412,NA,images/canary.png,NA,2.00,,small,NA,main1
329,hummingbird,Wed Aug 21 2019 15:20:58 GMT-0400 (Eastern Daylight Time),NA,10,warmup/eagle.jpg,hummingbird,This is a ,No,1,31MBOZ6PAOFUDICMOPNAB2PUIT2LCR,birds,patricia,3MMN5BL1W0STTKWHLAIQ6WWD0HC3M8,eagle,yes,Please label the pictures below.,NA,NA,32,NA,N/A,warmup/colibri.jpg,birds,graduated_college,A3TK7HVFEKB00R,English,male,NA,birds,NA,1,1566415258412,1,NA,This is an ,2.00,These are both,NA,eagle,warmup2
329,daisy,Wed Aug 21 2019 15:20:58 GMT-0400 (Eastern Daylight Time),NA,10,warmup/peony.png,daisy,This is a ,No,1,31MBOZ6PAOFUDICMOPNAB2PUIT2LCR,flowers,patricia,3MMN5BL1W0STTKWHLAIQ6WWD0HC3M8,peony,yes,Please label the pictures below.,NA,NA,32,NA,N/A,warmup/daisy.png,plants,graduated_college,A3TK7HVFEKB00R,English,male,NA,flowers,NA,2,1566415258412,1,NA,This is a ,2.00,These are both,NA,peony,warmup2
329,daisy,Wed Aug 21 2019 15:20:58 GMT-0400 (Eastern Daylight Time),NA,10,warmup/peony.png,daisy,This is a ,No,1,31MBOZ6PAOFUDICMOPNAB2PUIT2LCR,flowers,patricia,3MMN5BL1W0STTKWHLAIQ6WWD0HC3M8,peony,yes,Please label the pictures below.,NA,NA,32,NA,N/A,warmup/daisy.png,flowers,graduated_college,A3TK7HVFEKB00R,English,male,NA,flowers,NA,2,1566415258412,2,NA,This is a ,2.00,These are both,NA,peony,warmup2
329,tuna,Wed Aug 21 2019 15:20:58 GMT-0400 (Eastern Daylight Time),NA,10,warmup/clownfish.jpg,tuna,This is a ,No,1,31MBOZ6PAOFUDICMOPNAB2PUIT2LCR,fish,patricia,3MMN5BL1W0STTKWHLAIQ6WWD0HC3M8,clownfish,yes,Please label the pictures below.,NA,NA,32,NA,N/A,warmup/tuna.jpg,fish,graduated_college,A3TK7HVFEKB00R,English,male,NA,fish,NA,3,1566415258412,1,NA,This is a ,2.00,These are both,NA,clownfish,warmup2
329,NA,Wed Aug 21 2019 15:20:58 GMT-0400 (Eastern Daylight Time),images/fish-parade2.png,10,NA,NA,That's a small ,No,1,31MBOZ6PAOFUDICMOPNAB2PUIT2LCR,fish,patricia,3MMN5BL1W0STTKWHLAIQ6WWD0HC3M8,NA,yes,This one is also in the parade.,prenominal,You say to your friend:,32,clownfish,N/A,NA,NA,graduated_college,A3TK7HVFEKB00R,English,male,,NA,You see a parade of animals.,1,1566415258412,NA,images/clownfish.png,NA,2.00,,small,NA,main2
329,NA,Wed Aug 21 2019 15:20:58 GMT-0400 (Eastern Daylight Time),images/flower-parade.png,10,NA,NA,That's a small ,No,1,31MBOZ6PAOFUDICMOPNAB2PUIT2LCR,flowers,patricia,3MMN5BL1W0STTKWHLAIQ6WWD0HC3M8,NA,yes,This one is also in the collection.,prenominal,You say to your friend:,32,daisy,N/A,NA,NA,graduated_college,A3TK7HVFEKB00R,English,male,,NA,You see a collection of plants.,2,1566415258412,NA,images/daisy.png,NA,2.00,,small,NA,main2
329,NA,Wed Aug 21 2019 15:20:58 GMT-0400 (Eastern Daylight Time),images/bird-parade2.png,10,NA,NA,That's a big ,No,1,31MBOZ6PAOFUDICMOPNAB2PUIT2LCR,birds,patricia,3MMN5BL1W0STTKWHLAIQ6WWD0HC3M8,NA,yes,This one is also in the parade.,prenominal,You say to your friend:,32,eagle,N/A,NA,NA,graduated_college,A3TK7HVFEKB00R,English,male,,NA,You see a parade of animals.,3,1566415258412,NA,images/eagle.png,NA,2.00,,big,NA,main2
327,flower,Wed Aug 21 2019 14:24:20 GMT-0500 (Central Daylight Time),NA,10,warmup/peony.png,daisy,This is a ,no,2,3IQ9O0AYW6N99Y6RP8LN8WX6PB8ITT,flowers,elizabeth,3R5F3LQFV38IEGOMJXSC21QXACOZOE,peony,,Please label the pictures below.,NA,NA,53,NA,,warmup/daisy.png,flowers,graduated_college,A2QCMCFT08SA7X,english,male,NA,flowers,NA,1,1566415460191,1,NA,This is a ,1,These are both,NA,flower,warmup1
327,flower,Wed Aug 21 2019 14:24:20 GMT-0500 (Central Daylight Time),NA,10,warmup/peony.png,daisy,This is a ,no,2,3IQ9O0AYW6N99Y6RP8LN8WX6PB8ITT,flowers,elizabeth,3R5F3LQFV38IEGOMJXSC21QXACOZOE,peony,,Please label the pictures below.,NA,NA,53,NA,,warmup/daisy.png,flowers,graduated_college,A2QCMCFT08SA7X,english,male,NA,flowers,NA,1,1566415460191,2,NA,This is a ,1,These are both,NA,flower,warmup1
327,flower,Wed Aug 21 2019 14:24:20 GMT-0500 (Central Daylight Time),NA,10,warmup/peony.png,daisy,This is a ,no,2,3IQ9O0AYW6N99Y6RP8LN8WX6PB8ITT,flowers,elizabeth,3R5F3LQFV38IEGOMJXSC21QXACOZOE,peony,,Please label the pictures below.,NA,NA,53,NA,,warmup/daisy.png,flower,graduated_college,A2QCMCFT08SA7X,english,male,NA,flowers,NA,1,1566415460191,3,NA,This is a ,1,These are both,NA,flower,warmup1
327,flower,Wed Aug 21 2019 14:24:20 GMT-0500 (Central Daylight Time),NA,10,warmup/peony.png,daisy,This is a ,no,2,3IQ9O0AYW6N99Y6RP8LN8WX6PB8ITT,flowers,elizabeth,3R5F3LQFV38IEGOMJXSC21QXACOZOE,peony,,Please label the pictures below.,NA,NA,53,NA,,warmup/daisy.png,flowers,graduated_college,A2QCMCFT08SA7X,english,male,NA,flowers,NA,1,1566415460191,4,NA,This is a ,1,These are both,NA,flower,warmup1
327,flowers,Wed Aug 21 2019 14:24:20 GMT-0500 (Central Daylight Time),NA,10,warmup/peony.png,daisy,This is a ,no,2,3IQ9O0AYW6N99Y6RP8LN8WX6PB8ITT,flowers,elizabeth,3R5F3LQFV38IEGOMJXSC21QXACOZOE,peony,,Please label the pictures below.,NA,NA,53,NA,,warmup/daisy.png,flowers,graduated_college,A2QCMCFT08SA7X,english,male,NA,flowers,NA,1,1566415460191,5,NA,This is a ,1,These are both,NA,flowers,warmup1
327,flowers,Wed Aug 21 2019 14:24:20 GMT-0500 (Central Daylight Time),NA,10,warmup/peony.png,daisy,This is a ,no,2,3IQ9O0AYW6N99Y6RP8LN8WX6PB8ITT,flowers,elizabeth,3R5F3LQFV38IEGOMJXSC21QXACOZOE,peony,,Please label the pictures below.,NA,NA,53,NA,,warmup/daisy.png,flowers,graduated_college,A2QCMCFT08SA7X,english,male,NA,flowers,NA,1,1566415460191,6,NA,This is a ,1,These are both,NA,flowers,warmup1
327,flower,Wed Aug 21 2019 14:24:20 GMT-0500 (Central Daylight Time),NA,10,warmup/peony.png,daisy,This is a ,no,2,3IQ9O0AYW6N99Y6RP8LN8WX6PB8ITT,flowers,elizabeth,3R5F3LQFV38IEGOMJXSC21QXACOZOE,peony,,Please label the pictures below.,NA,NA,53,NA,,warmup/daisy.png,flowers,graduated_college,A2QCMCFT08SA7X,english,male,NA,flowers,NA,1,1566415460191,7,NA,This is a ,1,These are both,NA,flower,warmup1
327,flower,Wed Aug 21 2019 14:24:20 GMT-0500 (Central Daylight Time),NA,10,warmup/peony.png,daisy,This is a ,no,2,3IQ9O0AYW6N99Y6RP8LN8WX6PB8ITT,flowers,elizabeth,3R5F3LQFV38IEGOMJXSC21QXACOZOE,peony,,Please label the pictures below.,NA,NA,53,NA,,warmup/daisy.png,flowers,graduated_college,A2QCMCFT08SA7X,english,male,NA,flowers,NA,1,1566415460191,8,NA,This is a ,1,These are both,NA,flower,warmup1
327,daisy,Wed Aug 21 2019 14:24:20 GMT-0500 (Central Daylight Time),NA,10,warmup/peony.png,daisy,This is a ,no,2,3IQ9O0AYW6N99Y6RP8LN8WX6PB8ITT,flowers,elizabeth,3R5F3LQFV38IEGOMJXSC21QXACOZOE,peony,,Please label the pictures below.,NA,NA,53,NA,,warmup/daisy.png,flowers,graduated_college,A2QCMCFT08SA7X,english,male,NA,flowers,NA,1,1566415460191,9,NA,This is a ,1,These are both,NA,peony,warmup1
327,swan,Wed Aug 21 2019 14:24:20 GMT-0500 (Central Daylight Time),NA,10,warmup/canary.jpg,swan,This is a ,no,2,3IQ9O0AYW6N99Y6RP8LN8WX6PB8ITT,birds,elizabeth,3R5F3LQFV38IEGOMJXSC21QXACOZOE,canary,,Please label the pictures below.,NA,NA,53,NA,,warmup/swan.jpg,birds,graduated_college,A2QCMCFT08SA7X,english,male,NA,birds,NA,2,1566415460191,1,NA,This is a ,1,These are both,NA,canery,warmup1
327,swan,Wed Aug 21 2019 14:24:20 GMT-0500 (Central Daylight Time),NA,10,warmup/canary.jpg,swan,This is a ,no,2,3IQ9O0AYW6N99Y6RP8LN8WX6PB8ITT,birds,elizabeth,3R5F3LQFV38IEGOMJXSC21QXACOZOE,canary,,Please label the pictures below.,NA,NA,53,NA,,warmup/swan.jpg,birds,graduated_college,A2QCMCFT08SA7X,english,male,NA,birds,NA,2,1566415460191,2,NA,This is a ,1,These are both,NA,canary,warmup1
327,pug,Wed Aug 21 2019 14:24:20 GMT-0500 (Central Daylight Time),NA,10,warmup/great-dane.jpg,pug,This is a ,no,2,3IQ9O0AYW6N99Y6RP8LN8WX6PB8ITT,dogs,elizabeth,3R5F3LQFV38IEGOMJXSC21QXACOZOE,great dane,,Please label the pictures below.,NA,NA,53,NA,,warmup/pug.jpg,dogs,graduated_college,A2QCMCFT08SA7X,english,male,NA,dogs,NA,3,1566415460191,1,NA,This is a ,1,These are both,NA,great dane,warmup1
327,NA,Wed Aug 21 2019 14:24:20 GMT-0500 (Central Daylight Time),images/bird-parade3.png,10,NA,NA,That's a small ,no,2,3IQ9O0AYW6N99Y6RP8LN8WX6PB8ITT,birds,elizabeth,3R5F3LQFV38IEGOMJXSC21QXACOZOE,NA,,This one is also in the parade.,prenominal,You say to your friend:,53,canary,,NA,NA,graduated_college,A2QCMCFT08SA7X,english,male,,NA,You see a parade of animals.,1,1566415460191,NA,images/canary.png,NA,1,,small,NA,main1
327,NA,Wed Aug 21 2019 14:24:20 GMT-0500 (Central Daylight Time),images/dog-parade2.png,10,NA,NA,That's a small ,no,2,3IQ9O0AYW6N99Y6RP8LN8WX6PB8ITT,dogs,elizabeth,3R5F3LQFV38IEGOMJXSC21QXACOZOE,NA,,This one is also in the parade.,prenominal,You say to your friend:,53,pug,,NA,NA,graduated_college,A2QCMCFT08SA7X,english,male,,NA,You see a parade of animals.,2,1566415460191,NA,images/pug.png,NA,1,,small,NA,main1
327,NA,Wed Aug 21 2019 14:24:20 GMT-0500 (Central Daylight Time),images/flower-parade.png,10,NA,NA,That's a small ,no,2,3IQ9O0AYW6N99Y6RP8LN8WX6PB8ITT,flowers,elizabeth,3R5F3LQFV38IEGOMJXSC21QXACOZOE,NA,,This one is also in the collection.,prenominal,You say to your friend:,53,daisy,,NA,NA,graduated_college,A2QCMCFT08SA7X,english,male,,NA,You see a collection of plants.,3,1566415460191,NA,images/daisy.png,NA,1,,small,NA,main1
327,goose,Wed Aug 21 2019 14:24:20 GMT-0500 (Central Daylight Time),NA,10,warmup/sparrow.jpg,goose,This is a ,no,2,3IQ9O0AYW6N99Y6RP8LN8WX6PB8ITT,birds,elizabeth,3R5F3LQFV38IEGOMJXSC21QXACOZOE,sparrow,,Please label the pictures below.,NA,NA,53,NA,,warmup/goose.png,birds,graduated_college,A2QCMCFT08SA7X,english,male,NA,birds,NA,1,1566415460191,1,NA,This is a ,1,These are both,NA,sparrow,warmup2
327,sword fish,Wed Aug 21 2019 14:24:20 GMT-0500 (Central Daylight Time),NA,10,warmup/goldfish.png,swordfish,This is a ,no,2,3IQ9O0AYW6N99Y6RP8LN8WX6PB8ITT,fish,elizabeth,3R5F3LQFV38IEGOMJXSC21QXACOZOE,goldfish,,Please label the pictures below.,NA,NA,53,NA,,warmup/swordfish.jpg,fish,graduated_college,A2QCMCFT08SA7X,english,male,NA,fish,NA,2,1566415460191,1,NA,This is a ,1,These are both,NA,gold fish,warmup2
327,sword fish,Wed Aug 21 2019 14:24:20 GMT-0500 (Central Daylight Time),NA,10,warmup/goldfish.png,swordfish,This is a ,no,2,3IQ9O0AYW6N99Y6RP8LN8WX6PB8ITT,fish,elizabeth,3R5F3LQFV38IEGOMJXSC21QXACOZOE,goldfish,,Please label the pictures below.,NA,NA,53,NA,,warmup/swordfish.jpg,fish,graduated_college,A2QCMCFT08SA7X,english,male,NA,fish,NA,2,1566415460191,2,NA,This is a ,1,These are both,NA,gold fish,warmup2
327,swordfish,Wed Aug 21 2019 14:24:20 GMT-0500 (Central Daylight Time),NA,10,warmup/goldfish.png,swordfish,This is a ,no,2,3IQ9O0AYW6N99Y6RP8LN8WX6PB8ITT,fish,elizabeth,3R5F3LQFV38IEGOMJXSC21QXACOZOE,goldfish,,Please label the pictures below.,NA,NA,53,NA,,warmup/swordfish.jpg,fish,graduated_college,A2QCMCFT08SA7X,english,male,NA,fish,NA,2,1566415460191,3,NA,This is a ,1,These are both,NA,goldfish,warmup2
327,chiwowa,Wed Aug 21 2019 14:24:20 GMT-0500 (Central Daylight Time),NA,10,warmup/doberman.png,chihuahua,This is a ,no,2,3IQ9O0AYW6N99Y6RP8LN8WX6PB8ITT,dogs,elizabeth,3R5F3LQFV38IEGOMJXSC21QXACOZOE,doberman,,Please label the pictures below.,NA,NA,53,NA,,warmup/chihuahua.jpg,dogs,graduated_college,A2QCMCFT08SA7X,english,male,NA,dogs,NA,3,1566415460191,1,NA,This is a ,1,These are both,NA,doberman,warmup2
327,chihuahua,Wed Aug 21 2019 14:24:20 GMT-0500 (Central Daylight Time),NA,10,warmup/doberman.png,chihuahua,This is a ,no,2,3IQ9O0AYW6N99Y6RP8LN8WX6PB8ITT,dogs,elizabeth,3R5F3LQFV38IEGOMJXSC21QXACOZOE,doberman,,Please label the pictures below.,NA,NA,53,NA,,warmup/chihuahua.jpg,dogs,graduated_college,A2QCMCFT08SA7X,english,male,NA,dogs,NA,3,1566415460191,2,NA,This is a ,1,These are both,NA,doberman,warmup2
327,NA,Wed Aug 21 2019 14:24:20 GMT-0500 (Central Daylight Time),images/bird-parade.png,10,NA,NA,That's a big ,no,2,3IQ9O0AYW6N99Y6RP8LN8WX6PB8ITT,birds,elizabeth,3R5F3LQFV38IEGOMJXSC21QXACOZOE,NA,,This one is also in the parade.,prenominal,You say to your friend:,53,goose,,NA,NA,graduated_college,A2QCMCFT08SA7X,english,male,,NA,You see a parade of animals.,1,1566415460191,NA,images/goose.png,NA,1,,big,NA,main2
327,NA,Wed Aug 21 2019 14:24:20 GMT-0500 (Central Daylight Time),images/fish-parade.png,10,NA,NA,That's a big ,no,2,3IQ9O0AYW6N99Y6RP8LN8WX6PB8ITT,fish,elizabeth,3R5F3LQFV38IEGOMJXSC21QXACOZOE,NA,,This one is also in the parade.,prenominal,You say to your friend:,53,swordfish,,NA,NA,graduated_college,A2QCMCFT08SA7X,english,male,,NA,You see a parade of animals.,2,1566415460191,NA,images/swordfish.png,NA,1,,big,NA,main2
327,NA,Wed Aug 21 2019 14:24:20 GMT-0500 (Central Daylight Time),images/dog-parade.png,10,NA,NA,That's a big ,no,2,3IQ9O0AYW6N99Y6RP8LN8WX6PB8ITT,dogs,elizabeth,3R5F3LQFV38IEGOMJXSC21QXACOZOE,NA,,This one is also in the parade.,prenominal,You say to your friend:,53,doberman,,NA,NA,graduated_college,A2QCMCFT08SA7X,english,male,,NA,You see a parade of animals.,3,1566415460191,NA,images/doberman.png,NA,1,,big,NA,main2
326,hummingbird,Wed Aug 21 2019 15:22:16 GMT-0400 (Eastern Daylight Time),NA,10,warmup/eagle.jpg,hummingbird,This is a ,none,1,388FBO7JZRHX4LGCWULELLL2QCKNY3,birds,jennifer,3UOUJI6MTE2OMQ84E1G04M2BKYGXUU,eagle,yes,Please label the pictures below.,NA,NA,53,NA,,warmup/colibri.jpg,birds,some_college,A37VBAMFEQKJO4,english,male,NA,birds,NA,1,1566415336262,1,NA,This is an ,2.00,These are both,NA,eagle,warmup1
326,swan,Wed Aug 21 2019 15:22:16 GMT-0400 (Eastern Daylight Time),NA,10,warmup/canary.jpg,swan,This is a ,none,1,388FBO7JZRHX4LGCWULELLL2QCKNY3,birds,jennifer,3UOUJI6MTE2OMQ84E1G04M2BKYGXUU,canary,yes,Please label the pictures below.,NA,NA,53,NA,,warmup/swan.jpg,birds,some_college,A37VBAMFEQKJO4,english,male,NA,birds,NA,2,1566415336262,1,NA,This is a ,2.00,These are both,NA,canary,warmup1
326,pug,Wed Aug 21 2019 15:22:16 GMT-0400 (Eastern Daylight Time),NA,10,warmup/great-dane.jpg,pug,This is a ,none,1,388FBO7JZRHX4LGCWULELLL2QCKNY3,dogs,jennifer,3UOUJI6MTE2OMQ84E1G04M2BKYGXUU,great dane,yes,Please label the pictures below.,NA,NA,53,NA,,warmup/pug.jpg,dogs,some_college,A37VBAMFEQKJO4,english,male,NA,dogs,NA,3,1566415336262,1,NA,This is a ,2.00,These are both,NA,labrador,warmup1
326,pug,Wed Aug 21 2019 15:22:16 GMT-0400 (Eastern Daylight Time),NA,10,warmup/great-dane.jpg,pug,This is a ,none,1,388FBO7JZRHX4LGCWULELLL2QCKNY3,dogs,jennifer,3UOUJI6MTE2OMQ84E1G04M2BKYGXUU,great dane,yes,Please label the pictures below.,NA,NA,53,NA,,warmup/pug.jpg,dogs,some_college,A37VBAMFEQKJO4,english,male,NA,dogs,NA,3,1566415336262,2,NA,This is a ,2.00,These are both,NA,great dane,warmup1
326,NA,Wed Aug 21 2019 15:22:16 GMT-0400 (Eastern Daylight Time),images/bird-parade3.png,10,NA,NA,That's a small ,none,1,388FBO7JZRHX4LGCWULELLL2QCKNY3,birds,jennifer,3UOUJI6MTE2OMQ84E1G04M2BKYGXUU,NA,yes,This one is also in the parade.,prenominal,You say to your friend:,53,bird,,NA,NA,some_college,A37VBAMFEQKJO4,english,male,,NA,You see a parade of animals.,1,1566415336262,NA,images/canary.png,NA,2.00,,small,NA,main1
326,NA,Wed Aug 21 2019 15:22:16 GMT-0400 (Eastern Daylight Time),images/dog-parade2.png,10,NA,NA,That's a small ,none,1,388FBO7JZRHX4LGCWULELLL2QCKNY3,dogs,jennifer,3UOUJI6MTE2OMQ84E1G04M2BKYGXUU,NA,yes,This one is also in the parade.,prenominal,You say to your friend:,53,dog,,NA,NA,some_college,A37VBAMFEQKJO4,english,male,,NA,You see a parade of animals.,2,1566415336262,NA,images/pug.png,NA,2.00,,small,NA,main1
326,NA,Wed Aug 21 2019 15:22:16 GMT-0400 (Eastern Daylight Time),images/bird-parade2.png,10,NA,NA,That's a big ,none,1,388FBO7JZRHX4LGCWULELLL2QCKNY3,birds,jennifer,3UOUJI6MTE2OMQ84E1G04M2BKYGXUU,NA,yes,This one is also in the parade.,prenominal,You say to your friend:,53,bird,,NA,NA,some_college,A37VBAMFEQKJO4,english,male,,NA,You see a parade of animals.,3,1566415336262,NA,images/eagle.png,NA,2.00,,big,NA,main1
326,cypress,Wed Aug 21 2019 15:22:16 GMT-0400 (Eastern Daylight Time),NA,10,warmup/bonsai.jpg,redwood|sequoia,This is a ,none,1,388FBO7JZRHX4LGCWULELLL2QCKNY3,trees,jennifer,3UOUJI6MTE2OMQ84E1G04M2BKYGXUU,bonsai,yes,Please label the pictures below.,NA,NA,53,NA,,warmup/sequoia.jpg,trees,some_college,A37VBAMFEQKJO4,english,male,NA,trees,NA,1,1566415336262,1,NA,This is a ,2.00,These are both,NA,bonsai,warmup2
326,redwood,Wed Aug 21 2019 15:22:16 GMT-0400 (Eastern Daylight Time),NA,10,warmup/bonsai.jpg,redwood|sequoia,This is a ,none,1,388FBO7JZRHX4LGCWULELLL2QCKNY3,trees,jennifer,3UOUJI6MTE2OMQ84E1G04M2BKYGXUU,bonsai,yes,Please label the pictures below.,NA,NA,53,NA,,warmup/sequoia.jpg,trees,some_college,A37VBAMFEQKJO4,english,male,NA,trees,NA,1,1566415336262,2,NA,This is a ,2.00,These are both,NA,bonsai,warmup2
326,tuna,Wed Aug 21 2019 15:22:16 GMT-0400 (Eastern Daylight Time),NA,10,warmup/clownfish.jpg,tuna,This is a ,none,1,388FBO7JZRHX4LGCWULELLL2QCKNY3,fish,jennifer,3UOUJI6MTE2OMQ84E1G04M2BKYGXUU,clownfish,yes,Please label the pictures below.,NA,NA,53,NA,,warmup/tuna.jpg,fish,some_college,A37VBAMFEQKJO4,english,male,NA,fish,NA,2,1566415336262,1,NA,This is a ,2.00,These are both,NA,nemo,warmup2
326,tuna,Wed Aug 21 2019 15:22:16 GMT-0400 (Eastern Daylight Time),NA,10,warmup/clownfish.jpg,tuna,This is a ,none,1,388FBO7JZRHX4LGCWULELLL2QCKNY3,fish,jennifer,3UOUJI6MTE2OMQ84E1G04M2BKYGXUU,clownfish,yes,Please label the pictures below.,NA,NA,53,NA,,warmup/tuna.jpg,fish,some_college,A37VBAMFEQKJO4,english,male,NA,fish,NA,2,1566415336262,2,NA,This is a ,2.00,These are both,NA,clownfish,warmup2
326,chihuahua,Wed Aug 21 2019 15:22:16 GMT-0400 (Eastern Daylight Time),NA,10,warmup/doberman.png,chihuahua,This is a ,none,1,388FBO7JZRHX4LGCWULELLL2QCKNY3,dogs,jennifer,3UOUJI6MTE2OMQ84E1G04M2BKYGXUU,doberman,yes,Please label the pictures below.,NA,NA,53,NA,,warmup/chihuahua.jpg,dogs,some_college,A37VBAMFEQKJO4,english,male,NA,dogs,NA,3,1566415336262,1,NA,This is a ,2.00,These are both,NA,doberman,warmup2
326,NA,Wed Aug 21 2019 15:22:16 GMT-0400 (Eastern Daylight Time),images/dog-parade.png,10,NA,NA,That's a small ,none,1,388FBO7JZRHX4LGCWULELLL2QCKNY3,dogs,jennifer,3UOUJI6MTE2OMQ84E1G04M2BKYGXUU,NA,yes,This one is also in the parade.,prenominal,You say to your friend:,53,dog,,NA,NA,some_college,A37VBAMFEQKJO4,english,male,,NA,You see a parade of animals.,1,1566415336262,NA,images/chihuahua.png,NA,2.00,,small,NA,main2
326,NA,Wed Aug 21 2019 15:22:16 GMT-0400 (Eastern Daylight Time),images/fish-parade2.png,10,NA,NA,That's a big ,none,1,388FBO7JZRHX4LGCWULELLL2QCKNY3,fish,jennifer,3UOUJI6MTE2OMQ84E1G04M2BKYGXUU,NA,yes,This one is also in the parade.,prenominal,You say to your friend:,53,fish,,NA,NA,some_college,A37VBAMFEQKJO4,english,male,,NA,You see a parade of animals.,2,1566415336262,NA,images/tuna.png,NA,2.00,,big,NA,main2
326,NA,Wed Aug 21 2019 15:22:16 GMT-0400 (Eastern Daylight Time),images/tree-parade.png,10,NA,NA,That's a big ,none,1,388FBO7JZRHX4LGCWULELLL2QCKNY3,trees,jennifer,3UOUJI6MTE2OMQ84E1G04M2BKYGXUU,NA,yes,This one is also in the landscape.,prenominal,You say to your friend:,53,tree,,NA,NA,some_college,A37VBAMFEQKJO4,english,male,,NA,You see the following items in a landscape.,3,1566415336262,NA,images/sequoia.png,NA,2.00,,big,NA,main2
325,flower,Wed Aug 21 2019 15:19:45 GMT-0400 (Eastern Daylight Time),NA,10,warmup/sunflower.png,dandelion,This is a ,no,1,3IQ9O0AYW6N99Y6RP8LN8WX6PB8ITT,flowers,sarah,3OWEPKL08A0HCLI4ZN0GWSXTA927NB,sunflower,yes,Please label the pictures below.,NA,NA,28,NA,everything was fine,warmup/dandelion.jpg,flower,graduated_high_school,A1CUDX7TTS2W61,english,male,NA,flowers,NA,1,1566415185105,1,NA,This is a ,1,These are both,NA,flower,warmup1
325,dandelion,Wed Aug 21 2019 15:19:45 GMT-0400 (Eastern Daylight Time),NA,10,warmup/sunflower.png,dandelion,This is a ,no,1,3IQ9O0AYW6N99Y6RP8LN8WX6PB8ITT,flowers,sarah,3OWEPKL08A0HCLI4ZN0GWSXTA927NB,sunflower,yes,Please label the pictures below.,NA,NA,28,NA,everything was fine,warmup/dandelion.jpg,flowers,graduated_high_school,A1CUDX7TTS2W61,english,male,NA,flowers,NA,1,1566415185105,2,NA,This is a ,1,These are both,NA,sunflower,warmup1
325,goose,Wed Aug 21 2019 15:19:45 GMT-0400 (Eastern Daylight Time),NA,10,warmup/canary.jpg,swan,This is a ,no,1,3IQ9O0AYW6N99Y6RP8LN8WX6PB8ITT,birds,sarah,3OWEPKL08A0HCLI4ZN0GWSXTA927NB,canary,yes,Please label the pictures below.,NA,NA,28,NA,everything was fine,warmup/swan.jpg,birds,graduated_high_school,A1CUDX7TTS2W61,english,male,NA,birds,NA,2,1566415185105,1,NA,This is a ,1,These are both,NA,canary,warmup1
325,swan,Wed Aug 21 2019 15:19:45 GMT-0400 (Eastern Daylight Time),NA,10,warmup/canary.jpg,swan,This is a ,no,1,3IQ9O0AYW6N99Y6RP8LN8WX6PB8ITT,birds,sarah,3OWEPKL08A0HCLI4ZN0GWSXTA927NB,canary,yes,Please label the pictures below.,NA,NA,28,NA,everything was fine,warmup/swan.jpg,birds,graduated_high_school,A1CUDX7TTS2W61,english,male,NA,birds,NA,2,1566415185105,2,NA,This is a ,1,These are both,NA,canary,warmup1
325,pug,Wed Aug 21 2019 15:19:45 GMT-0400 (Eastern Daylight Time),NA,10,warmup/great-dane.jpg,pug,This is a ,no,1,3IQ9O0AYW6N99Y6RP8LN8WX6PB8ITT,dogs,sarah,3OWEPKL08A0HCLI4ZN0GWSXTA927NB,great dane,yes,Please label the pictures below.,NA,NA,28,NA,everything was fine,warmup/pug.jpg,dogs,graduated_high_school,A1CUDX7TTS2W61,english,male,NA,dogs,NA,3,1566415185105,1,NA,This is a ,1,These are both,NA,lab,warmup1
325,pug,Wed Aug 21 2019 15:19:45 GMT-0400 (Eastern Daylight Time),NA,10,warmup/great-dane.jpg,pug,This is a ,no,1,3IQ9O0AYW6N99Y6RP8LN8WX6PB8ITT,dogs,sarah,3OWEPKL08A0HCLI4ZN0GWSXTA927NB,great dane,yes,Please label the pictures below.,NA,NA,28,NA,everything was fine,warmup/pug.jpg,dogs,graduated_high_school,A1CUDX7TTS2W61,english,male,NA,dogs,NA,3,1566415185105,2,NA,This is a ,1,These are both,NA,great dane,warmup1
325,NA,Wed Aug 21 2019 15:19:45 GMT-0400 (Eastern Daylight Time),images/bird-parade3.png,10,NA,NA,That's a big ,no,1,3IQ9O0AYW6N99Y6RP8LN8WX6PB8ITT,birds,sarah,3OWEPKL08A0HCLI4ZN0GWSXTA927NB,NA,yes,This one is also in the parade.,prenominal,You say to your friend:,28,swan,everything was fine,NA,NA,graduated_high_school,A1CUDX7TTS2W61,english,male,,NA,You see a parade of animals.,1,1566415185105,NA,images/swan.png,NA,1,,big,NA,main1
325,NA,Wed Aug 21 2019 15:19:45 GMT-0400 (Eastern Daylight Time),images/dog-parade2.png,10,NA,NA,That's a big ,no,1,3IQ9O0AYW6N99Y6RP8LN8WX6PB8ITT,dogs,sarah,3OWEPKL08A0HCLI4ZN0GWSXTA927NB,NA,yes,This one is also in the parade.,prenominal,You say to your friend:,28,great dane,everything was fine,NA,NA,graduated_high_school,A1CUDX7TTS2W61,english,male,,NA,You see a parade of animals.,2,1566415185105,NA,images/great-dane.png,NA,1,,big,NA,main1
325,NA,Wed Aug 21 2019 15:19:45 GMT-0400 (Eastern Daylight Time),images/flower-parade2.png,10,NA,NA,That's a big ,no,1,3IQ9O0AYW6N99Y6RP8LN8WX6PB8ITT,flowers,sarah,3OWEPKL08A0HCLI4ZN0GWSXTA927NB,NA,yes,This one is also in the collection.,prenominal,You say to your friend:,28,sunflower,everything was fine,NA,NA,graduated_high_school,A1CUDX7TTS2W61,english,male,,NA,You see a collection of plants.,3,1566415185105,NA,images/sunflower.png,NA,1,,big,NA,main1
325,oak tree,Wed Aug 21 2019 15:19:45 GMT-0400 (Eastern Daylight Time),NA,10,warmup/bonsai.jpg,redwood|sequoia,This is a ,no,1,3IQ9O0AYW6N99Y6RP8LN8WX6PB8ITT,trees,sarah,3OWEPKL08A0HCLI4ZN0GWSXTA927NB,bonsai,yes,Please label the pictures below.,NA,NA,28,NA,everything was fine,warmup/sequoia.jpg,trees,graduated_high_school,A1CUDX7TTS2W61,english,male,NA,trees,NA,1,1566415185105,1,NA,This is a ,1,These are both,NA,banzai tree,warmup2
325,redwood,Wed Aug 21 2019 15:19:45 GMT-0400 (Eastern Daylight Time),NA,10,warmup/bonsai.jpg,redwood|sequoia,This is a ,no,1,3IQ9O0AYW6N99Y6RP8LN8WX6PB8ITT,trees,sarah,3OWEPKL08A0HCLI4ZN0GWSXTA927NB,bonsai,yes,Please label the pictures below.,NA,NA,28,NA,everything was fine,warmup/sequoia.jpg,trees,graduated_high_school,A1CUDX7TTS2W61,english,male,NA,trees,NA,1,1566415185105,2,NA,This is a ,1,These are both,NA,bonsai,warmup2
325,duck,Wed Aug 21 2019 15:19:45 GMT-0400 (Eastern Daylight Time),NA,10,warmup/sparrow.jpg,goose,This is a ,no,1,3IQ9O0AYW6N99Y6RP8LN8WX6PB8ITT,birds,sarah,3OWEPKL08A0HCLI4ZN0GWSXTA927NB,sparrow,yes,Please label the pictures below.,NA,NA,28,NA,everything was fine,warmup/goose.png,bird,graduated_high_school,A1CUDX7TTS2W61,english,male,NA,birds,NA,2,1566415185105,1,NA,This is a ,1,These are both,NA,finch,warmup2
325,goose,Wed Aug 21 2019 15:19:45 GMT-0400 (Eastern Daylight Time),NA,10,warmup/sparrow.jpg,goose,This is a ,no,1,3IQ9O0AYW6N99Y6RP8LN8WX6PB8ITT,birds,sarah,3OWEPKL08A0HCLI4ZN0GWSXTA927NB,sparrow,yes,Please label the pictures below.,NA,NA,28,NA,everything was fine,warmup/goose.png,birds,graduated_high_school,A1CUDX7TTS2W61,english,male,NA,birds,NA,2,1566415185105,2,NA,This is a ,1,These are both,NA,sparrow,warmup2
325,chihuahua,Wed Aug 21 2019 15:19:45 GMT-0400 (Eastern Daylight Time),NA,10,warmup/doberman.png,chihuahua,This is a ,no,1,3IQ9O0AYW6N99Y6RP8LN8WX6PB8ITT,dogs,sarah,3OWEPKL08A0HCLI4ZN0GWSXTA927NB,doberman,yes,Please label the pictures below.,NA,NA,28,NA,everything was fine,warmup/chihuahua.jpg,dogs,graduated_high_school,A1CUDX7TTS2W61,english,male,NA,dogs,NA,3,1566415185105,1,NA,This is a ,1,These are both,NA,rott wheller,warmup2
325,chihuahua,Wed Aug 21 2019 15:19:45 GMT-0400 (Eastern Daylight Time),NA,10,warmup/doberman.png,chihuahua,This is a ,no,1,3IQ9O0AYW6N99Y6RP8LN8WX6PB8ITT,dogs,sarah,3OWEPKL08A0HCLI4ZN0GWSXTA927NB,doberman,yes,Please label the pictures below.,NA,NA,28,NA,everything was fine,warmup/chihuahua.jpg,dogs,graduated_high_school,A1CUDX7TTS2W61,english,male,NA,dogs,NA,3,1566415185105,2,NA,This is a ,1,These are both,NA,doberman,warmup2
