submission_id,response1,startDate,context_picture,experiment_id,picture2,correct1,question1,problems,enjoyment,hit_id,assignment_id,correct2,understand,text,sentence,age,response,comments,picture1,response3,education,worker_id,languages,sex,RT,correct3,context,trial_number,startTime,picture,fairprice,question2,response2,trial_name
60,monkey,Thu Jul 25 2019 14:31:15 GMT-0700 (Pacific Daylight Time),NA,4,images/gorilla.jpg,spider monkey,This is a ,No,1,3OYHVNTV5TMK21R7TUK0R26WHDAOKT,3ZV9H2YQQEVPYWQVPCODFUY4TUWW3F,gorilla,yes,Please label the pictures below.,NA,41,NA,"There are a few issues with this experiment. First, often times I would come up with a label, only to discover that you have a very narrow definition of what that label should be. For the general 'monkey' label, I put 'primates', which should have been an acceptable response, but it wasn't, based on your narrow definitions. I changed the label to what you wanted, but it made me wonder what you could possibly be testing. Also, I feel that some of the images stretch what would be commonly known - is anyone really supposed to know that one of your dog images was a Great Dane? Or that the tree was a Sequoia, not an Oak? Perhaps it would help if the images were photos instead of illustrations, but probably not.",images/spidermonkey.jpg,primates,higher_degree,ANNVWKERLZG9A,English,male,NA,monkeys|apes,NA,1,1564090275591,NA,1.50,These are both,gorilla,warmup
60,monkey,Thu Jul 25 2019 14:31:15 GMT-0700 (Pacific Daylight Time),NA,4,images/gorilla.jpg,spider monkey,This is a ,No,1,3OYHVNTV5TMK21R7TUK0R26WHDAOKT,3ZV9H2YQQEVPYWQVPCODFUY4TUWW3F,gorilla,yes,Please label the pictures below.,NA,41,NA,"There are a few issues with this experiment. First, often times I would come up with a label, only to discover that you have a very narrow definition of what that label should be. For the general 'monkey' label, I put 'primates', which should have been an acceptable response, but it wasn't, based on your narrow definitions. I changed the label to what you wanted, but it made me wonder what you could possibly be testing. Also, I feel that some of the images stretch what would be commonly known - is anyone really supposed to know that one of your dog images was a Great Dane? Or that the tree was a Sequoia, not an Oak? Perhaps it would help if the images were photos instead of illustrations, but probably not.",images/spidermonkey.jpg,apes,higher_degree,ANNVWKERLZG9A,English,male,NA,monkeys|apes,NA,1,1564090275591,NA,1.50,These are both,ape,warmup
60,monkey,Thu Jul 25 2019 14:31:15 GMT-0700 (Pacific Daylight Time),NA,4,images/gorilla.jpg,spider monkey,This is a ,No,1,3OYHVNTV5TMK21R7TUK0R26WHDAOKT,3ZV9H2YQQEVPYWQVPCODFUY4TUWW3F,gorilla,yes,Please label the pictures below.,NA,41,NA,"There are a few issues with this experiment. First, often times I would come up with a label, only to discover that you have a very narrow definition of what that label should be. For the general 'monkey' label, I put 'primates', which should have been an acceptable response, but it wasn't, based on your narrow definitions. I changed the label to what you wanted, but it made me wonder what you could possibly be testing. Also, I feel that some of the images stretch what would be commonly known - is anyone really supposed to know that one of your dog images was a Great Dane? Or that the tree was a Sequoia, not an Oak? Perhaps it would help if the images were photos instead of illustrations, but probably not.",images/spidermonkey.jpg,apes,higher_degree,ANNVWKERLZG9A,English,male,NA,monkeys|apes,NA,1,1564090275591,NA,1.50,These are both,gorilla,warmup
60,monkey,Thu Jul 25 2019 14:31:15 GMT-0700 (Pacific Daylight Time),NA,4,images/gorilla.jpg,spider monkey,This is a ,No,1,3OYHVNTV5TMK21R7TUK0R26WHDAOKT,3ZV9H2YQQEVPYWQVPCODFUY4TUWW3F,gorilla,yes,Please label the pictures below.,NA,41,NA,"There are a few issues with this experiment. First, often times I would come up with a label, only to discover that you have a very narrow definition of what that label should be. For the general 'monkey' label, I put 'primates', which should have been an acceptable response, but it wasn't, based on your narrow definitions. I changed the label to what you wanted, but it made me wonder what you could possibly be testing. Also, I feel that some of the images stretch what would be commonly known - is anyone really supposed to know that one of your dog images was a Great Dane? Or that the tree was a Sequoia, not an Oak? Perhaps it would help if the images were photos instead of illustrations, but probably not.",images/spidermonkey.jpg,apes,higher_degree,ANNVWKERLZG9A,English,male,NA,monkeys|apes,NA,1,1564090275591,NA,1.50,These are both,gorilla,warmup
60,monkey,Thu Jul 25 2019 14:31:15 GMT-0700 (Pacific Daylight Time),NA,4,images/gorilla.jpg,spider monkey,This is a ,No,1,3OYHVNTV5TMK21R7TUK0R26WHDAOKT,3ZV9H2YQQEVPYWQVPCODFUY4TUWW3F,gorilla,yes,Please label the pictures below.,NA,41,NA,"There are a few issues with this experiment. First, often times I would come up with a label, only to discover that you have a very narrow definition of what that label should be. For the general 'monkey' label, I put 'primates', which should have been an acceptable response, but it wasn't, based on your narrow definitions. I changed the label to what you wanted, but it made me wonder what you could possibly be testing. Also, I feel that some of the images stretch what would be commonly known - is anyone really supposed to know that one of your dog images was a Great Dane? Or that the tree was a Sequoia, not an Oak? Perhaps it would help if the images were photos instead of illustrations, but probably not.",images/spidermonkey.jpg,apes,higher_degree,ANNVWKERLZG9A,English,male,NA,monkeys|apes,NA,1,1564090275591,NA,1.50,These are both,gorilla,warmup
60,monkey,Thu Jul 25 2019 14:31:15 GMT-0700 (Pacific Daylight Time),NA,4,images/gorilla.jpg,spider monkey,This is a ,No,1,3OYHVNTV5TMK21R7TUK0R26WHDAOKT,3ZV9H2YQQEVPYWQVPCODFUY4TUWW3F,gorilla,yes,Please label the pictures below.,NA,41,NA,"There are a few issues with this experiment. First, often times I would come up with a label, only to discover that you have a very narrow definition of what that label should be. For the general 'monkey' label, I put 'primates', which should have been an acceptable response, but it wasn't, based on your narrow definitions. I changed the label to what you wanted, but it made me wonder what you could possibly be testing. Also, I feel that some of the images stretch what would be commonly known - is anyone really supposed to know that one of your dog images was a Great Dane? Or that the tree was a Sequoia, not an Oak? Perhaps it would help if the images were photos instead of illustrations, but probably not.",images/spidermonkey.jpg,primates,higher_degree,ANNVWKERLZG9A,English,male,NA,monkeys|apes,NA,1,1564090275591,NA,1.50,These are both,gorilla,warmup
60,monkey,Thu Jul 25 2019 14:31:15 GMT-0700 (Pacific Daylight Time),NA,4,images/gorilla.jpg,spider monkey,This is a ,No,1,3OYHVNTV5TMK21R7TUK0R26WHDAOKT,3ZV9H2YQQEVPYWQVPCODFUY4TUWW3F,gorilla,yes,Please label the pictures below.,NA,41,NA,"There are a few issues with this experiment. First, often times I would come up with a label, only to discover that you have a very narrow definition of what that label should be. For the general 'monkey' label, I put 'primates', which should have been an acceptable response, but it wasn't, based on your narrow definitions. I changed the label to what you wanted, but it made me wonder what you could possibly be testing. Also, I feel that some of the images stretch what would be commonly known - is anyone really supposed to know that one of your dog images was a Great Dane? Or that the tree was a Sequoia, not an Oak? Perhaps it would help if the images were photos instead of illustrations, but probably not.",images/spidermonkey.jpg,monkeys,higher_degree,ANNVWKERLZG9A,English,male,NA,monkeys|apes,NA,1,1564090275591,NA,1.50,These are both,gorilla,warmup
60,monkey,Thu Jul 25 2019 14:31:15 GMT-0700 (Pacific Daylight Time),NA,4,images/gorilla.jpg,spider monkey,This is a ,No,1,3OYHVNTV5TMK21R7TUK0R26WHDAOKT,3ZV9H2YQQEVPYWQVPCODFUY4TUWW3F,gorilla,yes,Please label the pictures below.,NA,41,NA,"There are a few issues with this experiment. First, often times I would come up with a label, only to discover that you have a very narrow definition of what that label should be. For the general 'monkey' label, I put 'primates', which should have been an acceptable response, but it wasn't, based on your narrow definitions. I changed the label to what you wanted, but it made me wonder what you could possibly be testing. Also, I feel that some of the images stretch what would be commonly known - is anyone really supposed to know that one of your dog images was a Great Dane? Or that the tree was a Sequoia, not an Oak? Perhaps it would help if the images were photos instead of illustrations, but probably not.",images/spidermonkey.jpg,monkeys,higher_degree,ANNVWKERLZG9A,English,male,NA,monkeys|apes,NA,1,1564090275591,NA,1.50,These are both,gorilla,warmup
60,spider monkey,Thu Jul 25 2019 14:31:15 GMT-0700 (Pacific Daylight Time),NA,4,images/gorilla.jpg,spider monkey,This is a ,No,1,3OYHVNTV5TMK21R7TUK0R26WHDAOKT,3ZV9H2YQQEVPYWQVPCODFUY4TUWW3F,gorilla,yes,Please label the pictures below.,NA,41,NA,"There are a few issues with this experiment. First, often times I would come up with a label, only to discover that you have a very narrow definition of what that label should be. For the general 'monkey' label, I put 'primates', which should have been an acceptable response, but it wasn't, based on your narrow definitions. I changed the label to what you wanted, but it made me wonder what you could possibly be testing. Also, I feel that some of the images stretch what would be commonly known - is anyone really supposed to know that one of your dog images was a Great Dane? Or that the tree was a Sequoia, not an Oak? Perhaps it would help if the images were photos instead of illustrations, but probably not.",images/spidermonkey.jpg,monkeys,higher_degree,ANNVWKERLZG9A,English,male,NA,monkeys|apes,NA,1,1564090275591,NA,1.50,These are both,gorilla,warmup
60,dandelion,Thu Jul 25 2019 14:31:15 GMT-0700 (Pacific Daylight Time),NA,4,images/sunflower.png,daisy,This is a ,No,1,3OYHVNTV5TMK21R7TUK0R26WHDAOKT,3ZV9H2YQQEVPYWQVPCODFUY4TUWW3F,sunflower,yes,Please label the pictures below.,NA,41,NA,"There are a few issues with this experiment. First, often times I would come up with a label, only to discover that you have a very narrow definition of what that label should be. For the general 'monkey' label, I put 'primates', which should have been an acceptable response, but it wasn't, based on your narrow definitions. I changed the label to what you wanted, but it made me wonder what you could possibly be testing. Also, I feel that some of the images stretch what would be commonly known - is anyone really supposed to know that one of your dog images was a Great Dane? Or that the tree was a Sequoia, not an Oak? Perhaps it would help if the images were photos instead of illustrations, but probably not.",images/daisy.png,flowers,higher_degree,ANNVWKERLZG9A,English,male,NA,flowers,NA,2,1564090275591,NA,1.50,These are both,sunflower,warmup
60,daisy,Thu Jul 25 2019 14:31:15 GMT-0700 (Pacific Daylight Time),NA,4,images/sunflower.png,daisy,This is a ,No,1,3OYHVNTV5TMK21R7TUK0R26WHDAOKT,3ZV9H2YQQEVPYWQVPCODFUY4TUWW3F,sunflower,yes,Please label the pictures below.,NA,41,NA,"There are a few issues with this experiment. First, often times I would come up with a label, only to discover that you have a very narrow definition of what that label should be. For the general 'monkey' label, I put 'primates', which should have been an acceptable response, but it wasn't, based on your narrow definitions. I changed the label to what you wanted, but it made me wonder what you could possibly be testing. Also, I feel that some of the images stretch what would be commonly known - is anyone really supposed to know that one of your dog images was a Great Dane? Or that the tree was a Sequoia, not an Oak? Perhaps it would help if the images were photos instead of illustrations, but probably not.",images/daisy.png,flowers,higher_degree,ANNVWKERLZG9A,English,male,NA,flowers,NA,2,1564090275591,NA,1.50,These are both,sunflower,warmup
60,marlin,Thu Jul 25 2019 14:31:15 GMT-0700 (Pacific Daylight Time),NA,4,images/goldfish.png,swordfish,This is a ,No,1,3OYHVNTV5TMK21R7TUK0R26WHDAOKT,3ZV9H2YQQEVPYWQVPCODFUY4TUWW3F,goldfish,yes,Please label the pictures below.,NA,41,NA,"There are a few issues with this experiment. First, often times I would come up with a label, only to discover that you have a very narrow definition of what that label should be. For the general 'monkey' label, I put 'primates', which should have been an acceptable response, but it wasn't, based on your narrow definitions. I changed the label to what you wanted, but it made me wonder what you could possibly be testing. Also, I feel that some of the images stretch what would be commonly known - is anyone really supposed to know that one of your dog images was a Great Dane? Or that the tree was a Sequoia, not an Oak? Perhaps it would help if the images were photos instead of illustrations, but probably not.",images/swordfish.jpg,fish,higher_degree,ANNVWKERLZG9A,English,male,NA,fish,NA,3,1564090275591,NA,1.50,These are both,goldfish,warmup
60,swordfish,Thu Jul 25 2019 14:31:15 GMT-0700 (Pacific Daylight Time),NA,4,images/goldfish.png,swordfish,This is a ,No,1,3OYHVNTV5TMK21R7TUK0R26WHDAOKT,3ZV9H2YQQEVPYWQVPCODFUY4TUWW3F,goldfish,yes,Please label the pictures below.,NA,41,NA,"There are a few issues with this experiment. First, often times I would come up with a label, only to discover that you have a very narrow definition of what that label should be. For the general 'monkey' label, I put 'primates', which should have been an acceptable response, but it wasn't, based on your narrow definitions. I changed the label to what you wanted, but it made me wonder what you could possibly be testing. Also, I feel that some of the images stretch what would be commonly known - is anyone really supposed to know that one of your dog images was a Great Dane? Or that the tree was a Sequoia, not an Oak? Perhaps it would help if the images were photos instead of illustrations, but probably not.",images/swordfish.jpg,fish,higher_degree,ANNVWKERLZG9A,English,male,NA,fish,NA,3,1564090275591,NA,1.50,These are both,goldfish,warmup
60,NA,Thu Jul 25 2019 14:31:15 GMT-0700 (Pacific Daylight Time),images/fish-parade.png,4,NA,NA,That ,No,1,3OYHVNTV5TMK21R7TUK0R26WHDAOKT,3ZV9H2YQQEVPYWQVPCODFUY4TUWW3F,NA,yes,Another animal belongs to the group.,You say to your friend:,41,fish,"There are a few issues with this experiment. First, often times I would come up with a label, only to discover that you have a very narrow definition of what that label should be. For the general 'monkey' label, I put 'primates', which should have been an acceptable response, but it wasn't, based on your narrow definitions. I changed the label to what you wanted, but it made me wonder what you could possibly be testing. Also, I feel that some of the images stretch what would be commonly known - is anyone really supposed to know that one of your dog images was a Great Dane? Or that the tree was a Sequoia, not an Oak? Perhaps it would help if the images were photos instead of illustrations, but probably not.",NA,NA,higher_degree,ANNVWKERLZG9A,English,male,,NA,You see a group of animals.,1,1564090275591,images/goldfish.png,1.50, is small.,NA,main
60,NA,Thu Jul 25 2019 14:31:15 GMT-0700 (Pacific Daylight Time),images/monkey-parade.png,4,NA,NA,That ,No,1,3OYHVNTV5TMK21R7TUK0R26WHDAOKT,3ZV9H2YQQEVPYWQVPCODFUY4TUWW3F,NA,yes,Another animal belongs to the group.,You say to your friend:,41,ape,"There are a few issues with this experiment. First, often times I would come up with a label, only to discover that you have a very narrow definition of what that label should be. For the general 'monkey' label, I put 'primates', which should have been an acceptable response, but it wasn't, based on your narrow definitions. I changed the label to what you wanted, but it made me wonder what you could possibly be testing. Also, I feel that some of the images stretch what would be commonly known - is anyone really supposed to know that one of your dog images was a Great Dane? Or that the tree was a Sequoia, not an Oak? Perhaps it would help if the images were photos instead of illustrations, but probably not.",NA,NA,higher_degree,ANNVWKERLZG9A,English,male,,NA,You see a group of animals.,2,1564090275591,images/gorilla.jpg,1.50, is big.,NA,main
60,NA,Thu Jul 25 2019 14:31:15 GMT-0700 (Pacific Daylight Time),images/flower-parade.png,4,NA,NA,That ,No,1,3OYHVNTV5TMK21R7TUK0R26WHDAOKT,3ZV9H2YQQEVPYWQVPCODFUY4TUWW3F,NA,yes,Another plant belongs to the group.,You say to your friend:,41,flower,"There are a few issues with this experiment. First, often times I would come up with a label, only to discover that you have a very narrow definition of what that label should be. For the general 'monkey' label, I put 'primates', which should have been an acceptable response, but it wasn't, based on your narrow definitions. I changed the label to what you wanted, but it made me wonder what you could possibly be testing. Also, I feel that some of the images stretch what would be commonly known - is anyone really supposed to know that one of your dog images was a Great Dane? Or that the tree was a Sequoia, not an Oak? Perhaps it would help if the images were photos instead of illustrations, but probably not.",NA,NA,higher_degree,ANNVWKERLZG9A,English,male,,NA,You see a group of plants.,3,1564090275591,images/sunflower.png,1.50, is big.,NA,main
60,oak tree,Thu Jul 25 2019 14:31:15 GMT-0700 (Pacific Daylight Time),NA,4,images/bonsai.jpg,redwood|sequoia,This is a ,No,1,3OYHVNTV5TMK21R7TUK0R26WHDAOKT,3ZV9H2YQQEVPYWQVPCODFUY4TUWW3F,bonsai,yes,Please label the pictures below.,NA,41,NA,"There are a few issues with this experiment. First, often times I would come up with a label, only to discover that you have a very narrow definition of what that label should be. For the general 'monkey' label, I put 'primates', which should have been an acceptable response, but it wasn't, based on your narrow definitions. I changed the label to what you wanted, but it made me wonder what you could possibly be testing. Also, I feel that some of the images stretch what would be commonly known - is anyone really supposed to know that one of your dog images was a Great Dane? Or that the tree was a Sequoia, not an Oak? Perhaps it would help if the images were photos instead of illustrations, but probably not.",images/sequoia.jpg,trees,higher_degree,ANNVWKERLZG9A,English,male,NA,trees,NA,1,1564090275591,NA,1.50,These are both,bonzai tree,warmup
60,redwood,Thu Jul 25 2019 14:31:15 GMT-0700 (Pacific Daylight Time),NA,4,images/bonsai.jpg,redwood|sequoia,This is a ,No,1,3OYHVNTV5TMK21R7TUK0R26WHDAOKT,3ZV9H2YQQEVPYWQVPCODFUY4TUWW3F,bonsai,yes,Please label the pictures below.,NA,41,NA,"There are a few issues with this experiment. First, often times I would come up with a label, only to discover that you have a very narrow definition of what that label should be. For the general 'monkey' label, I put 'primates', which should have been an acceptable response, but it wasn't, based on your narrow definitions. I changed the label to what you wanted, but it made me wonder what you could possibly be testing. Also, I feel that some of the images stretch what would be commonly known - is anyone really supposed to know that one of your dog images was a Great Dane? Or that the tree was a Sequoia, not an Oak? Perhaps it would help if the images were photos instead of illustrations, but probably not.",images/sequoia.jpg,trees,higher_degree,ANNVWKERLZG9A,English,male,NA,trees,NA,1,1564090275591,NA,1.50,These are both,bonsai,warmup
60,chihuahua,Thu Jul 25 2019 14:31:15 GMT-0700 (Pacific Daylight Time),NA,4,images/great-dane.jpg,chihuahua,This is a ,No,1,3OYHVNTV5TMK21R7TUK0R26WHDAOKT,3ZV9H2YQQEVPYWQVPCODFUY4TUWW3F,great dane,yes,Please label the pictures below.,NA,41,NA,"There are a few issues with this experiment. First, often times I would come up with a label, only to discover that you have a very narrow definition of what that label should be. For the general 'monkey' label, I put 'primates', which should have been an acceptable response, but it wasn't, based on your narrow definitions. I changed the label to what you wanted, but it made me wonder what you could possibly be testing. Also, I feel that some of the images stretch what would be commonly known - is anyone really supposed to know that one of your dog images was a Great Dane? Or that the tree was a Sequoia, not an Oak? Perhaps it would help if the images were photos instead of illustrations, but probably not.",images/chihuahua.jpg,dogs,higher_degree,ANNVWKERLZG9A,English,male,NA,dogs,NA,2,1564090275591,NA,1.50,These are both,hound,warmup
60,chihuahua,Thu Jul 25 2019 14:31:15 GMT-0700 (Pacific Daylight Time),NA,4,images/great-dane.jpg,chihuahua,This is a ,No,1,3OYHVNTV5TMK21R7TUK0R26WHDAOKT,3ZV9H2YQQEVPYWQVPCODFUY4TUWW3F,great dane,yes,Please label the pictures below.,NA,41,NA,"There are a few issues with this experiment. First, often times I would come up with a label, only to discover that you have a very narrow definition of what that label should be. For the general 'monkey' label, I put 'primates', which should have been an acceptable response, but it wasn't, based on your narrow definitions. I changed the label to what you wanted, but it made me wonder what you could possibly be testing. Also, I feel that some of the images stretch what would be commonly known - is anyone really supposed to know that one of your dog images was a Great Dane? Or that the tree was a Sequoia, not an Oak? Perhaps it would help if the images were photos instead of illustrations, but probably not.",images/chihuahua.jpg,dogs,higher_degree,ANNVWKERLZG9A,English,male,NA,dogs,NA,2,1564090275591,NA,1.50,These are both,great dane,warmup
60,swan,Thu Jul 25 2019 14:31:15 GMT-0700 (Pacific Daylight Time),NA,4,images/colibri.jpg,swan,This is a ,No,1,3OYHVNTV5TMK21R7TUK0R26WHDAOKT,3ZV9H2YQQEVPYWQVPCODFUY4TUWW3F,hummingbird,yes,Please label the pictures below.,NA,41,NA,"There are a few issues with this experiment. First, often times I would come up with a label, only to discover that you have a very narrow definition of what that label should be. For the general 'monkey' label, I put 'primates', which should have been an acceptable response, but it wasn't, based on your narrow definitions. I changed the label to what you wanted, but it made me wonder what you could possibly be testing. Also, I feel that some of the images stretch what would be commonly known - is anyone really supposed to know that one of your dog images was a Great Dane? Or that the tree was a Sequoia, not an Oak? Perhaps it would help if the images were photos instead of illustrations, but probably not.",images/swan.jpg,birds,higher_degree,ANNVWKERLZG9A,English,male,NA,birds,NA,3,1564090275591,NA,1.50,These are both,hummingbird,warmup
60,NA,Thu Jul 25 2019 14:31:15 GMT-0700 (Pacific Daylight Time),images/dog_parade_small.png,4,NA,NA,That ,No,1,3OYHVNTV5TMK21R7TUK0R26WHDAOKT,3ZV9H2YQQEVPYWQVPCODFUY4TUWW3F,NA,yes,Another animal belongs to the group.,You say to your friend:,41,dog,"There are a few issues with this experiment. First, often times I would come up with a label, only to discover that you have a very narrow definition of what that label should be. For the general 'monkey' label, I put 'primates', which should have been an acceptable response, but it wasn't, based on your narrow definitions. I changed the label to what you wanted, but it made me wonder what you could possibly be testing. Also, I feel that some of the images stretch what would be commonly known - is anyone really supposed to know that one of your dog images was a Great Dane? Or that the tree was a Sequoia, not an Oak? Perhaps it would help if the images were photos instead of illustrations, but probably not.",NA,NA,higher_degree,ANNVWKERLZG9A,English,male,,NA,You see a group of animals.,1,1564090275591,images/chihuahua.jpg,1.50, is small.,NA,main
60,NA,Thu Jul 25 2019 14:31:15 GMT-0700 (Pacific Daylight Time),images/bird-parade-small.png,4,NA,NA,That ,No,1,3OYHVNTV5TMK21R7TUK0R26WHDAOKT,3ZV9H2YQQEVPYWQVPCODFUY4TUWW3F,NA,yes,Another animal bleongs to the group.,You say to your friend:,41,bird,"There are a few issues with this experiment. First, often times I would come up with a label, only to discover that you have a very narrow definition of what that label should be. For the general 'monkey' label, I put 'primates', which should have been an acceptable response, but it wasn't, based on your narrow definitions. I changed the label to what you wanted, but it made me wonder what you could possibly be testing. Also, I feel that some of the images stretch what would be commonly known - is anyone really supposed to know that one of your dog images was a Great Dane? Or that the tree was a Sequoia, not an Oak? Perhaps it would help if the images were photos instead of illustrations, but probably not.",NA,NA,higher_degree,ANNVWKERLZG9A,English,male,,NA,You see a group of animals.,2,1564090275591,images/colibri.jpg,1.50, is small.,NA,main
60,NA,Thu Jul 25 2019 14:31:15 GMT-0700 (Pacific Daylight Time),images/tree-parade.png,4,NA,NA,That ,No,1,3OYHVNTV5TMK21R7TUK0R26WHDAOKT,3ZV9H2YQQEVPYWQVPCODFUY4TUWW3F,NA,yes,Another plant belongs to the group.,You say to your friend:,41,tree,"There are a few issues with this experiment. First, often times I would come up with a label, only to discover that you have a very narrow definition of what that label should be. For the general 'monkey' label, I put 'primates', which should have been an acceptable response, but it wasn't, based on your narrow definitions. I changed the label to what you wanted, but it made me wonder what you could possibly be testing. Also, I feel that some of the images stretch what would be commonly known - is anyone really supposed to know that one of your dog images was a Great Dane? Or that the tree was a Sequoia, not an Oak? Perhaps it would help if the images were photos instead of illustrations, but probably not.",NA,NA,higher_degree,ANNVWKERLZG9A,English,male,,NA,You see a group of plants.,3,1564090275591,images/sequoia.jpg,1.50, is big.,NA,main
59,daisy,Thu Jul 25 2019 17:31:07 GMT-0400 (Eastern Daylight Time),NA,4,images/sunflower.png,daisy,This is a ,,1,38VTL6WC4A1TEWA6SUPSR4LGYXEY5T,3DIP6YHAPDGHITAAGTP3K5ZF2CD8EX,sunflower,yes,Please label the pictures below.,NA,23,NA,,images/daisy.png,flowers,some_college,A12E4Z8DBFUL29,english,male,NA,flowers,NA,1,1564090267925,NA,.75,These are both,sunflower,warmup
59,chihuahua,Thu Jul 25 2019 17:31:07 GMT-0400 (Eastern Daylight Time),NA,4,images/great-dane.jpg,chihuahua,This is a ,,1,38VTL6WC4A1TEWA6SUPSR4LGYXEY5T,3DIP6YHAPDGHITAAGTP3K5ZF2CD8EX,great dane,yes,Please label the pictures below.,NA,23,NA,,images/chihuahua.jpg,dogs,some_college,A12E4Z8DBFUL29,english,male,NA,dogs,NA,2,1564090267925,NA,.75,These are both,labrador,warmup
59,chihuahua,Thu Jul 25 2019 17:31:07 GMT-0400 (Eastern Daylight Time),NA,4,images/great-dane.jpg,chihuahua,This is a ,,1,38VTL6WC4A1TEWA6SUPSR4LGYXEY5T,3DIP6YHAPDGHITAAGTP3K5ZF2CD8EX,great dane,yes,Please label the pictures below.,NA,23,NA,,images/chihuahua.jpg,dogs,some_college,A12E4Z8DBFUL29,english,male,NA,dogs,NA,2,1564090267925,NA,.75,These are both,great dane,warmup
59,Pine,Thu Jul 25 2019 17:31:07 GMT-0400 (Eastern Daylight Time),NA,4,images/bonsai.jpg,redwood|sequoia,This is a ,,1,38VTL6WC4A1TEWA6SUPSR4LGYXEY5T,3DIP6YHAPDGHITAAGTP3K5ZF2CD8EX,bonsai,yes,Please label the pictures below.,NA,23,NA,,images/sequoia.jpg,trees,some_college,A12E4Z8DBFUL29,english,male,NA,trees,NA,3,1564090267925,NA,.75,These are both,bonsai,warmup
59,redwood,Thu Jul 25 2019 17:31:07 GMT-0400 (Eastern Daylight Time),NA,4,images/bonsai.jpg,redwood|sequoia,This is a ,,1,38VTL6WC4A1TEWA6SUPSR4LGYXEY5T,3DIP6YHAPDGHITAAGTP3K5ZF2CD8EX,bonsai,yes,Please label the pictures below.,NA,23,NA,,images/sequoia.jpg,trees,some_college,A12E4Z8DBFUL29,english,male,NA,trees,NA,3,1564090267925,NA,.75,These are both,bonsai,warmup
59,NA,Thu Jul 25 2019 17:31:07 GMT-0400 (Eastern Daylight Time),images/dog_parade.png,4,NA,NA,That's a big ,,1,38VTL6WC4A1TEWA6SUPSR4LGYXEY5T,3DIP6YHAPDGHITAAGTP3K5ZF2CD8EX,NA,yes,Another animal belongs to the group.,You say to your friend:,23,great dane,,NA,NA,some_college,A12E4Z8DBFUL29,english,male,,NA,You see a group of animals.,1,1564090267925,images/great-dane.jpg,.75,,NA,main
59,NA,Thu Jul 25 2019 17:31:07 GMT-0400 (Eastern Daylight Time),images/tree-parade.png,4,NA,NA,That's a big ,,1,38VTL6WC4A1TEWA6SUPSR4LGYXEY5T,3DIP6YHAPDGHITAAGTP3K5ZF2CD8EX,NA,yes,Another plant belongs to the group.,You say to your friend:,23,redwood,,NA,NA,some_college,A12E4Z8DBFUL29,english,male,,NA,You see a group of plants.,2,1564090267925,images/sequoia.jpg,.75,,NA,main
59,NA,Thu Jul 25 2019 17:31:07 GMT-0400 (Eastern Daylight Time),images/flower-parade-small.png,4,NA,NA,That's a small ,,1,38VTL6WC4A1TEWA6SUPSR4LGYXEY5T,3DIP6YHAPDGHITAAGTP3K5ZF2CD8EX,NA,yes,Another plant belongs to the group.,You say to your friend:,23,daisy,,NA,NA,some_college,A12E4Z8DBFUL29,english,male,,NA,You see a group of plants.,3,1564090267925,images/daisy.png,.75,,NA,main
59,swordfish,Thu Jul 25 2019 17:31:07 GMT-0400 (Eastern Daylight Time),NA,4,images/goldfish.png,swordfish,This is a ,,1,38VTL6WC4A1TEWA6SUPSR4LGYXEY5T,3DIP6YHAPDGHITAAGTP3K5ZF2CD8EX,goldfish,yes,Please label the pictures below.,NA,23,NA,,images/swordfish.jpg,fish,some_college,A12E4Z8DBFUL29,english,male,NA,fish,NA,1,1564090267925,NA,.75,These are both,goldfish,warmup
59,monkey,Thu Jul 25 2019 17:31:07 GMT-0400 (Eastern Daylight Time),NA,4,images/gorilla.jpg,spider monkey,This is a ,,1,38VTL6WC4A1TEWA6SUPSR4LGYXEY5T,3DIP6YHAPDGHITAAGTP3K5ZF2CD8EX,gorilla,yes,Please label the pictures below.,NA,23,NA,,images/spidermonkey.jpg,apes,some_college,A12E4Z8DBFUL29,english,male,NA,monkeys|apes,NA,2,1564090267925,NA,.75,These are both,gorilla,warmup
59,spider monkey,Thu Jul 25 2019 17:31:07 GMT-0400 (Eastern Daylight Time),NA,4,images/gorilla.jpg,spider monkey,This is a ,,1,38VTL6WC4A1TEWA6SUPSR4LGYXEY5T,3DIP6YHAPDGHITAAGTP3K5ZF2CD8EX,gorilla,yes,Please label the pictures below.,NA,23,NA,,images/spidermonkey.jpg,apes,some_college,A12E4Z8DBFUL29,english,male,NA,monkeys|apes,NA,2,1564090267925,NA,.75,These are both,gorilla,warmup
59,swan,Thu Jul 25 2019 17:31:07 GMT-0400 (Eastern Daylight Time),NA,4,images/colibri.jpg,swan,This is a ,,1,38VTL6WC4A1TEWA6SUPSR4LGYXEY5T,3DIP6YHAPDGHITAAGTP3K5ZF2CD8EX,hummingbird,yes,Please label the pictures below.,NA,23,NA,,images/swan.jpg,birds,some_college,A12E4Z8DBFUL29,english,male,NA,birds,NA,3,1564090267925,NA,.75,These are both,hummingbird,warmup
59,NA,Thu Jul 25 2019 17:31:07 GMT-0400 (Eastern Daylight Time),images/monkey-parade-small.png,4,NA,NA,That's a small ,,1,38VTL6WC4A1TEWA6SUPSR4LGYXEY5T,3DIP6YHAPDGHITAAGTP3K5ZF2CD8EX,NA,yes,Another animal belongs to the group.,You say to your friend:,23,spider monkey,,NA,NA,some_college,A12E4Z8DBFUL29,english,male,,NA,You see a group of animals.,1,1564090267925,images/spidermonkey.jpg,.75,,NA,main
59,NA,Thu Jul 25 2019 17:31:07 GMT-0400 (Eastern Daylight Time),images/fish-parade.png,4,NA,NA,That's a small ,,1,38VTL6WC4A1TEWA6SUPSR4LGYXEY5T,3DIP6YHAPDGHITAAGTP3K5ZF2CD8EX,NA,yes,Another animal belongs to the group.,You say to your friend:,23,goldfish,,NA,NA,some_college,A12E4Z8DBFUL29,english,male,,NA,You see a group of animals.,2,1564090267925,images/goldfish.png,.75,,NA,main
59,NA,Thu Jul 25 2019 17:31:07 GMT-0400 (Eastern Daylight Time),images/bird-parade.png,4,NA,NA,That's a big ,,1,38VTL6WC4A1TEWA6SUPSR4LGYXEY5T,3DIP6YHAPDGHITAAGTP3K5ZF2CD8EX,NA,yes,Another animal belongs to the group.,You say to your friend:,23,swan,,NA,NA,some_college,A12E4Z8DBFUL29,english,male,,NA,You see a group of animals.,3,1564090267925,images/swan.jpg,.75,,NA,main
58,monkey,Thu Jul 25 2019 14:22:45 GMT-0700 (Pacific Daylight Time),NA,4,images/gorilla.jpg,spider monkey,This is a ,no,2,38VTL6WC4A1TEWA6SUPSR4LGYXEY5T,36TFCYNS45YJH42KE291L7DLL17XH3,gorilla,yes,Please label the pictures below.,NA,61,NA,,images/spidermonkey.jpg,apes,some_college,ASP32QB28TEZU,English,female,NA,monkeys|apes,NA,1,1564089765046,NA,1.25,These are both,gorilla,warmup
58,spider monkey,Thu Jul 25 2019 14:22:45 GMT-0700 (Pacific Daylight Time),NA,4,images/gorilla.jpg,spider monkey,This is a ,no,2,38VTL6WC4A1TEWA6SUPSR4LGYXEY5T,36TFCYNS45YJH42KE291L7DLL17XH3,gorilla,yes,Please label the pictures below.,NA,61,NA,,images/spidermonkey.jpg,apes,some_college,ASP32QB28TEZU,English,female,NA,monkeys|apes,NA,1,1564089765046,NA,1.25,These are both,gorilla,warmup
58,daisy,Thu Jul 25 2019 14:22:45 GMT-0700 (Pacific Daylight Time),NA,4,images/sunflower.png,daisy,This is a ,no,2,38VTL6WC4A1TEWA6SUPSR4LGYXEY5T,36TFCYNS45YJH42KE291L7DLL17XH3,sunflower,yes,Please label the pictures below.,NA,61,NA,,images/daisy.png,flowers,some_college,ASP32QB28TEZU,English,female,NA,flowers,NA,2,1564089765046,NA,1.25,These are both,sunflower,warmup
58,chihuhua,Thu Jul 25 2019 14:22:45 GMT-0700 (Pacific Daylight Time),NA,4,images/great-dane.jpg,chihuahua,This is a ,no,2,38VTL6WC4A1TEWA6SUPSR4LGYXEY5T,36TFCYNS45YJH42KE291L7DLL17XH3,great dane,yes,Please label the pictures below.,NA,61,NA,,images/chihuahua.jpg,dogs,some_college,ASP32QB28TEZU,English,female,NA,dogs,NA,3,1564089765046,NA,1.25,These are both,great dane,warmup
58,chihuahua,Thu Jul 25 2019 14:22:45 GMT-0700 (Pacific Daylight Time),NA,4,images/great-dane.jpg,chihuahua,This is a ,no,2,38VTL6WC4A1TEWA6SUPSR4LGYXEY5T,36TFCYNS45YJH42KE291L7DLL17XH3,great dane,yes,Please label the pictures below.,NA,61,NA,,images/chihuahua.jpg,dogs,some_college,ASP32QB28TEZU,English,female,NA,dogs,NA,3,1564089765046,NA,1.25,These are both,great dane,warmup
58,NA,Thu Jul 25 2019 14:22:45 GMT-0700 (Pacific Daylight Time),images/dog_parade_small.png,4,NA,NA,That ,no,2,38VTL6WC4A1TEWA6SUPSR4LGYXEY5T,36TFCYNS45YJH42KE291L7DLL17XH3,NA,yes,Another animal belongs to the group.,You say to your friend:,61,dog,,NA,NA,some_college,ASP32QB28TEZU,English,female,,NA,You see a group of animals.,1,1564089765046,images/chihuahua.jpg,1.25, is small.,NA,main
58,NA,Thu Jul 25 2019 14:22:45 GMT-0700 (Pacific Daylight Time),images/monkey-parade.png,4,NA,NA,That ,no,2,38VTL6WC4A1TEWA6SUPSR4LGYXEY5T,36TFCYNS45YJH42KE291L7DLL17XH3,NA,yes,Another animal belongs to the group.,You say to your friend:,61,monkey,,NA,NA,some_college,ASP32QB28TEZU,English,female,,NA,You see a group of animals.,2,1564089765046,images/gorilla.jpg,1.25, is big.,NA,main
58,NA,Thu Jul 25 2019 14:22:45 GMT-0700 (Pacific Daylight Time),images/flower-parade.png,4,NA,NA,That ,no,2,38VTL6WC4A1TEWA6SUPSR4LGYXEY5T,36TFCYNS45YJH42KE291L7DLL17XH3,NA,yes,Another plant belongs to the group.,You say to your friend:,61,flower,,NA,NA,some_college,ASP32QB28TEZU,English,female,,NA,You see a group of plants.,3,1564089765046,images/sunflower.png,1.25, is big.,NA,main
58,cedar,Thu Jul 25 2019 14:22:45 GMT-0700 (Pacific Daylight Time),NA,4,images/bonsai.jpg,redwood|sequoia,This is a ,no,2,38VTL6WC4A1TEWA6SUPSR4LGYXEY5T,36TFCYNS45YJH42KE291L7DLL17XH3,bonsai,yes,Please label the pictures below.,NA,61,NA,,images/sequoia.jpg,trees,some_college,ASP32QB28TEZU,English,female,NA,trees,NA,1,1564089765046,NA,1.25,These are both,bonzai,warmup
58,redwood,Thu Jul 25 2019 14:22:45 GMT-0700 (Pacific Daylight Time),NA,4,images/bonsai.jpg,redwood|sequoia,This is a ,no,2,38VTL6WC4A1TEWA6SUPSR4LGYXEY5T,36TFCYNS45YJH42KE291L7DLL17XH3,bonsai,yes,Please label the pictures below.,NA,61,NA,,images/sequoia.jpg,trees,some_college,ASP32QB28TEZU,English,female,NA,trees,NA,1,1564089765046,NA,1.25,These are both,bonsai,warmup
58,swan,Thu Jul 25 2019 14:22:45 GMT-0700 (Pacific Daylight Time),NA,4,images/colibri.jpg,swan,This is a ,no,2,38VTL6WC4A1TEWA6SUPSR4LGYXEY5T,36TFCYNS45YJH42KE291L7DLL17XH3,hummingbird,yes,Please label the pictures below.,NA,61,NA,,images/swan.jpg,birds,some_college,ASP32QB28TEZU,English,female,NA,birds,NA,2,1564089765046,NA,1.25,These are both,hummingbird,warmup
58,swordfish,Thu Jul 25 2019 14:22:45 GMT-0700 (Pacific Daylight Time),NA,4,images/goldfish.png,swordfish,This is a ,no,2,38VTL6WC4A1TEWA6SUPSR4LGYXEY5T,36TFCYNS45YJH42KE291L7DLL17XH3,goldfish,yes,Please label the pictures below.,NA,61,NA,,images/swordfish.jpg,fish,some_college,ASP32QB28TEZU,English,female,NA,fish,NA,3,1564089765046,NA,1.25,These are both,goldfish,warmup
58,NA,Thu Jul 25 2019 14:22:45 GMT-0700 (Pacific Daylight Time),images/bird-parade.png,4,NA,NA,That ,no,2,38VTL6WC4A1TEWA6SUPSR4LGYXEY5T,36TFCYNS45YJH42KE291L7DLL17XH3,NA,yes,Another animal belongs to the group.,You say to your friend:,61,bird,,NA,NA,some_college,ASP32QB28TEZU,English,female,,NA,You see a group of animals.,1,1564089765046,images/swan.jpg,1.25, is big.,NA,main
58,NA,Thu Jul 25 2019 14:22:45 GMT-0700 (Pacific Daylight Time),images/fish-parade.png,4,NA,NA,That ,no,2,38VTL6WC4A1TEWA6SUPSR4LGYXEY5T,36TFCYNS45YJH42KE291L7DLL17XH3,NA,yes,Another animal belongs to the group.,You say to your friend:,61,fish,,NA,NA,some_college,ASP32QB28TEZU,English,female,,NA,You see a group of animals.,2,1564089765046,images/swordfish.jpg,1.25, is big.,NA,main
58,NA,Thu Jul 25 2019 14:22:45 GMT-0700 (Pacific Daylight Time),images/tree-parade.png,4,NA,NA,That ,no,2,38VTL6WC4A1TEWA6SUPSR4LGYXEY5T,36TFCYNS45YJH42KE291L7DLL17XH3,NA,yes,Another plant belongs to the group.,You say to your friend:,61,tree,,NA,NA,some_college,ASP32QB28TEZU,English,female,,NA,You see a group of plants.,3,1564089765046,images/sequoia.jpg,1.25, is big.,NA,main
57,tree,Thu Jul 25 2019 15:20:42 GMT-0600 (Mountain Daylight Time),NA,4,images/bonsai.jpg,redwood|sequoia,This is a ,no,1,3OYHVNTV5TMK21R7TUK0R26WHDAOKT,3OCHAWUVGP8AJU3SKNCYYZTDDIBXK7,bonsai,yes,Please label the pictures below.,NA,25,NA,,images/sequoia.jpg,trees,graduated_college,A2FEPNA8OA1UE,english,male,NA,trees,NA,1,1564089642700,NA,1.5,These are both,tree,warmup
57,tree,Thu Jul 25 2019 15:20:42 GMT-0600 (Mountain Daylight Time),NA,4,images/bonsai.jpg,redwood|sequoia,This is a ,no,1,3OYHVNTV5TMK21R7TUK0R26WHDAOKT,3OCHAWUVGP8AJU3SKNCYYZTDDIBXK7,bonsai,yes,Please label the pictures below.,NA,25,NA,,images/sequoia.jpg,trees,graduated_college,A2FEPNA8OA1UE,english,male,NA,trees,NA,1,1564089642700,NA,1.5,These are both,tree,warmup
57,tree,Thu Jul 25 2019 15:20:42 GMT-0600 (Mountain Daylight Time),NA,4,images/bonsai.jpg,redwood|sequoia,This is a ,no,1,3OYHVNTV5TMK21R7TUK0R26WHDAOKT,3OCHAWUVGP8AJU3SKNCYYZTDDIBXK7,bonsai,yes,Please label the pictures below.,NA,25,NA,,images/sequoia.jpg,trees,graduated_college,A2FEPNA8OA1UE,english,male,NA,trees,NA,1,1564089642700,NA,1.5,These are both,tree,warmup
57,tree,Thu Jul 25 2019 15:20:42 GMT-0600 (Mountain Daylight Time),NA,4,images/bonsai.jpg,redwood|sequoia,This is a ,no,1,3OYHVNTV5TMK21R7TUK0R26WHDAOKT,3OCHAWUVGP8AJU3SKNCYYZTDDIBXK7,bonsai,yes,Please label the pictures below.,NA,25,NA,,images/sequoia.jpg,trees,graduated_college,A2FEPNA8OA1UE,english,male,NA,trees,NA,1,1564089642700,NA,1.5,These are both,tree,warmup
57,tree,Thu Jul 25 2019 15:20:42 GMT-0600 (Mountain Daylight Time),NA,4,images/bonsai.jpg,redwood|sequoia,This is a ,no,1,3OYHVNTV5TMK21R7TUK0R26WHDAOKT,3OCHAWUVGP8AJU3SKNCYYZTDDIBXK7,bonsai,yes,Please label the pictures below.,NA,25,NA,,images/sequoia.jpg,trees,graduated_college,A2FEPNA8OA1UE,english,male,NA,trees,NA,1,1564089642700,NA,1.5,These are both,tree,warmup
57,tree,Thu Jul 25 2019 15:20:42 GMT-0600 (Mountain Daylight Time),NA,4,images/bonsai.jpg,redwood|sequoia,This is a ,no,1,3OYHVNTV5TMK21R7TUK0R26WHDAOKT,3OCHAWUVGP8AJU3SKNCYYZTDDIBXK7,bonsai,yes,Please label the pictures below.,NA,25,NA,,images/sequoia.jpg,trees,graduated_college,A2FEPNA8OA1UE,english,male,NA,trees,NA,1,1564089642700,NA,1.5,These are both,tree,warmup
57,tree,Thu Jul 25 2019 15:20:42 GMT-0600 (Mountain Daylight Time),NA,4,images/bonsai.jpg,redwood|sequoia,This is a ,no,1,3OYHVNTV5TMK21R7TUK0R26WHDAOKT,3OCHAWUVGP8AJU3SKNCYYZTDDIBXK7,bonsai,yes,Please label the pictures below.,NA,25,NA,,images/sequoia.jpg,trees,graduated_college,A2FEPNA8OA1UE,english,male,NA,trees,NA,1,1564089642700,NA,1.5,These are both,tree,warmup
57,tree,Thu Jul 25 2019 15:20:42 GMT-0600 (Mountain Daylight Time),NA,4,images/bonsai.jpg,redwood|sequoia,This is a ,no,1,3OYHVNTV5TMK21R7TUK0R26WHDAOKT,3OCHAWUVGP8AJU3SKNCYYZTDDIBXK7,bonsai,yes,Please label the pictures below.,NA,25,NA,,images/sequoia.jpg,trees,graduated_college,A2FEPNA8OA1UE,english,male,NA,trees,NA,1,1564089642700,NA,1.5,These are both,tree,warmup
57,tree,Thu Jul 25 2019 15:20:42 GMT-0600 (Mountain Daylight Time),NA,4,images/bonsai.jpg,redwood|sequoia,This is a ,no,1,3OYHVNTV5TMK21R7TUK0R26WHDAOKT,3OCHAWUVGP8AJU3SKNCYYZTDDIBXK7,bonsai,yes,Please label the pictures below.,NA,25,NA,,images/sequoia.jpg,trees,graduated_college,A2FEPNA8OA1UE,english,male,NA,trees,NA,1,1564089642700,NA,1.5,These are both,tree,warmup
57,tree,Thu Jul 25 2019 15:20:42 GMT-0600 (Mountain Daylight Time),NA,4,images/bonsai.jpg,redwood|sequoia,This is a ,no,1,3OYHVNTV5TMK21R7TUK0R26WHDAOKT,3OCHAWUVGP8AJU3SKNCYYZTDDIBXK7,bonsai,yes,Please label the pictures below.,NA,25,NA,,images/sequoia.jpg,trees,graduated_college,A2FEPNA8OA1UE,english,male,NA,trees,NA,1,1564089642700,NA,1.5,These are both,tree,warmup
57,tree,Thu Jul 25 2019 15:20:42 GMT-0600 (Mountain Daylight Time),NA,4,images/bonsai.jpg,redwood|sequoia,This is a ,no,1,3OYHVNTV5TMK21R7TUK0R26WHDAOKT,3OCHAWUVGP8AJU3SKNCYYZTDDIBXK7,bonsai,yes,Please label the pictures below.,NA,25,NA,,images/sequoia.jpg,trees,graduated_college,A2FEPNA8OA1UE,english,male,NA,trees,NA,1,1564089642700,NA,1.5,These are both,tree,warmup
57,tree,Thu Jul 25 2019 15:20:42 GMT-0600 (Mountain Daylight Time),NA,4,images/bonsai.jpg,redwood|sequoia,This is a ,no,1,3OYHVNTV5TMK21R7TUK0R26WHDAOKT,3OCHAWUVGP8AJU3SKNCYYZTDDIBXK7,bonsai,yes,Please label the pictures below.,NA,25,NA,,images/sequoia.jpg,trees,graduated_college,A2FEPNA8OA1UE,english,male,NA,trees,NA,1,1564089642700,NA,1.5,These are both,tree,warmup
57,redwood,Thu Jul 25 2019 15:20:42 GMT-0600 (Mountain Daylight Time),NA,4,images/bonsai.jpg,redwood|sequoia,This is a ,no,1,3OYHVNTV5TMK21R7TUK0R26WHDAOKT,3OCHAWUVGP8AJU3SKNCYYZTDDIBXK7,bonsai,yes,Please label the pictures below.,NA,25,NA,,images/sequoia.jpg,trees,graduated_college,A2FEPNA8OA1UE,english,male,NA,trees,NA,1,1564089642700,NA,1.5,These are both,bonsai,warmup
57,monkey,Thu Jul 25 2019 15:20:42 GMT-0600 (Mountain Daylight Time),NA,4,images/gorilla.jpg,spider monkey,This is a ,no,1,3OYHVNTV5TMK21R7TUK0R26WHDAOKT,3OCHAWUVGP8AJU3SKNCYYZTDDIBXK7,gorilla,yes,Please label the pictures below.,NA,25,NA,,images/spidermonkey.jpg,primates,graduated_college,A2FEPNA8OA1UE,english,male,NA,monkeys|apes,NA,2,1564089642700,NA,1.5,These are both,gorilla,warmup
57,monkey,Thu Jul 25 2019 15:20:42 GMT-0600 (Mountain Daylight Time),NA,4,images/gorilla.jpg,spider monkey,This is a ,no,1,3OYHVNTV5TMK21R7TUK0R26WHDAOKT,3OCHAWUVGP8AJU3SKNCYYZTDDIBXK7,gorilla,yes,Please label the pictures below.,NA,25,NA,,images/spidermonkey.jpg,primates,graduated_college,A2FEPNA8OA1UE,english,male,NA,monkeys|apes,NA,2,1564089642700,NA,1.5,These are both,gorilla,warmup
57,monkey,Thu Jul 25 2019 15:20:42 GMT-0600 (Mountain Daylight Time),NA,4,images/gorilla.jpg,spider monkey,This is a ,no,1,3OYHVNTV5TMK21R7TUK0R26WHDAOKT,3OCHAWUVGP8AJU3SKNCYYZTDDIBXK7,gorilla,yes,Please label the pictures below.,NA,25,NA,,images/spidermonkey.jpg,primates,graduated_college,A2FEPNA8OA1UE,english,male,NA,monkeys|apes,NA,2,1564089642700,NA,1.5,These are both,gorilla,warmup
57,monkey,Thu Jul 25 2019 15:20:42 GMT-0600 (Mountain Daylight Time),NA,4,images/gorilla.jpg,spider monkey,This is a ,no,1,3OYHVNTV5TMK21R7TUK0R26WHDAOKT,3OCHAWUVGP8AJU3SKNCYYZTDDIBXK7,gorilla,yes,Please label the pictures below.,NA,25,NA,,images/spidermonkey.jpg,primates,graduated_college,A2FEPNA8OA1UE,english,male,NA,monkeys|apes,NA,2,1564089642700,NA,1.5,These are both,gorilla,warmup
57,spider monkey,Thu Jul 25 2019 15:20:42 GMT-0600 (Mountain Daylight Time),NA,4,images/gorilla.jpg,spider monkey,This is a ,no,1,3OYHVNTV5TMK21R7TUK0R26WHDAOKT,3OCHAWUVGP8AJU3SKNCYYZTDDIBXK7,gorilla,yes,Please label the pictures below.,NA,25,NA,,images/spidermonkey.jpg,primates,graduated_college,A2FEPNA8OA1UE,english,male,NA,monkeys|apes,NA,2,1564089642700,NA,1.5,These are both,gorilla,warmup
57,spider monkey,Thu Jul 25 2019 15:20:42 GMT-0600 (Mountain Daylight Time),NA,4,images/gorilla.jpg,spider monkey,This is a ,no,1,3OYHVNTV5TMK21R7TUK0R26WHDAOKT,3OCHAWUVGP8AJU3SKNCYYZTDDIBXK7,gorilla,yes,Please label the pictures below.,NA,25,NA,,images/spidermonkey.jpg,primates,graduated_college,A2FEPNA8OA1UE,english,male,NA,monkeys|apes,NA,2,1564089642700,NA,1.5,These are both,gorilla,warmup
57,spider monkey,Thu Jul 25 2019 15:20:42 GMT-0600 (Mountain Daylight Time),NA,4,images/gorilla.jpg,spider monkey,This is a ,no,1,3OYHVNTV5TMK21R7TUK0R26WHDAOKT,3OCHAWUVGP8AJU3SKNCYYZTDDIBXK7,gorilla,yes,Please label the pictures below.,NA,25,NA,,images/spidermonkey.jpg,primates,graduated_college,A2FEPNA8OA1UE,english,male,NA,monkeys|apes,NA,2,1564089642700,NA,1.5,These are both,gorilla,warmup
57,spider monkey,Thu Jul 25 2019 15:20:42 GMT-0600 (Mountain Daylight Time),NA,4,images/gorilla.jpg,spider monkey,This is a ,no,1,3OYHVNTV5TMK21R7TUK0R26WHDAOKT,3OCHAWUVGP8AJU3SKNCYYZTDDIBXK7,gorilla,yes,Please label the pictures below.,NA,25,NA,,images/spidermonkey.jpg,primates,graduated_college,A2FEPNA8OA1UE,english,male,NA,monkeys|apes,NA,2,1564089642700,NA,1.5,These are both,gorilla,warmup
57,spider monkey,Thu Jul 25 2019 15:20:42 GMT-0600 (Mountain Daylight Time),NA,4,images/gorilla.jpg,spider monkey,This is a ,no,1,3OYHVNTV5TMK21R7TUK0R26WHDAOKT,3OCHAWUVGP8AJU3SKNCYYZTDDIBXK7,gorilla,yes,Please label the pictures below.,NA,25,NA,,images/spidermonkey.jpg,apes,graduated_college,A2FEPNA8OA1UE,english,male,NA,monkeys|apes,NA,2,1564089642700,NA,1.5,These are both,gorilla,warmup
57,swan,Thu Jul 25 2019 15:20:42 GMT-0600 (Mountain Daylight Time),NA,4,images/colibri.jpg,swan,This is a ,no,1,3OYHVNTV5TMK21R7TUK0R26WHDAOKT,3OCHAWUVGP8AJU3SKNCYYZTDDIBXK7,hummingbird,yes,Please label the pictures below.,NA,25,NA,,images/swan.jpg,birds,graduated_college,A2FEPNA8OA1UE,english,male,NA,birds,NA,3,1564089642700,NA,1.5,These are both,hummingbird,warmup
57,NA,Thu Jul 25 2019 15:20:42 GMT-0600 (Mountain Daylight Time),images/tree-parade.png,4,NA,NA,That's a small ,no,1,3OYHVNTV5TMK21R7TUK0R26WHDAOKT,3OCHAWUVGP8AJU3SKNCYYZTDDIBXK7,NA,yes,Another plant belongs to the group.,You say to your friend:,25,tree,,NA,NA,graduated_college,A2FEPNA8OA1UE,english,male,,NA,You see a group of plants.,1,1564089642700,images/bonsai.jpg,1.5,,NA,main
57,NA,Thu Jul 25 2019 15:20:42 GMT-0600 (Mountain Daylight Time),images/bird-parade.png,4,NA,NA,That's a big ,no,1,3OYHVNTV5TMK21R7TUK0R26WHDAOKT,3OCHAWUVGP8AJU3SKNCYYZTDDIBXK7,NA,yes,Another animal belongs to the group.,You say to your friend:,25,swan,,NA,NA,graduated_college,A2FEPNA8OA1UE,english,male,,NA,You see a group of animals.,2,1564089642700,images/swan.jpg,1.5,,NA,main
57,NA,Thu Jul 25 2019 15:20:42 GMT-0600 (Mountain Daylight Time),images/monkey-parade-small.png,4,NA,NA,That's a small ,no,1,3OYHVNTV5TMK21R7TUK0R26WHDAOKT,3OCHAWUVGP8AJU3SKNCYYZTDDIBXK7,NA,yes,Another animal belongs to the group.,You say to your friend:,25,monkey,,NA,NA,graduated_college,A2FEPNA8OA1UE,english,male,,NA,You see a group of animals.,3,1564089642700,images/spidermonkey.jpg,1.5,,NA,main
57,marlin,Thu Jul 25 2019 15:20:42 GMT-0600 (Mountain Daylight Time),NA,4,images/goldfish.png,swordfish,This is a ,no,1,3OYHVNTV5TMK21R7TUK0R26WHDAOKT,3OCHAWUVGP8AJU3SKNCYYZTDDIBXK7,goldfish,yes,Please label the pictures below.,NA,25,NA,,images/swordfish.jpg,fish,graduated_college,A2FEPNA8OA1UE,english,male,NA,fish,NA,1,1564089642700,NA,1.5,These are both,goldfish,warmup
57,swordfish,Thu Jul 25 2019 15:20:42 GMT-0600 (Mountain Daylight Time),NA,4,images/goldfish.png,swordfish,This is a ,no,1,3OYHVNTV5TMK21R7TUK0R26WHDAOKT,3OCHAWUVGP8AJU3SKNCYYZTDDIBXK7,goldfish,yes,Please label the pictures below.,NA,25,NA,,images/swordfish.jpg,fish,graduated_college,A2FEPNA8OA1UE,english,male,NA,fish,NA,1,1564089642700,NA,1.5,These are both,goldfish,warmup
57,dandelion,Thu Jul 25 2019 15:20:42 GMT-0600 (Mountain Daylight Time),NA,4,images/sunflower.png,daisy,This is a ,no,1,3OYHVNTV5TMK21R7TUK0R26WHDAOKT,3OCHAWUVGP8AJU3SKNCYYZTDDIBXK7,sunflower,yes,Please label the pictures below.,NA,25,NA,,images/daisy.png,flowers,graduated_college,A2FEPNA8OA1UE,english,male,NA,flowers,NA,2,1564089642700,NA,1.5,These are both,sunflower,warmup
57,daisy,Thu Jul 25 2019 15:20:42 GMT-0600 (Mountain Daylight Time),NA,4,images/sunflower.png,daisy,This is a ,no,1,3OYHVNTV5TMK21R7TUK0R26WHDAOKT,3OCHAWUVGP8AJU3SKNCYYZTDDIBXK7,sunflower,yes,Please label the pictures below.,NA,25,NA,,images/daisy.png,flowers,graduated_college,A2FEPNA8OA1UE,english,male,NA,flowers,NA,2,1564089642700,NA,1.5,These are both,sunflower,warmup
57,chihuahua,Thu Jul 25 2019 15:20:42 GMT-0600 (Mountain Daylight Time),NA,4,images/great-dane.jpg,chihuahua,This is a ,no,1,3OYHVNTV5TMK21R7TUK0R26WHDAOKT,3OCHAWUVGP8AJU3SKNCYYZTDDIBXK7,great dane,yes,Please label the pictures below.,NA,25,NA,,images/chihuahua.jpg,dogs,graduated_college,A2FEPNA8OA1UE,english,male,NA,dogs,NA,3,1564089642700,NA,1.5,These are both,daschund,warmup
57,chihuahua,Thu Jul 25 2019 15:20:42 GMT-0600 (Mountain Daylight Time),NA,4,images/great-dane.jpg,chihuahua,This is a ,no,1,3OYHVNTV5TMK21R7TUK0R26WHDAOKT,3OCHAWUVGP8AJU3SKNCYYZTDDIBXK7,great dane,yes,Please label the pictures below.,NA,25,NA,,images/chihuahua.jpg,dogs,graduated_college,A2FEPNA8OA1UE,english,male,NA,dogs,NA,3,1564089642700,NA,1.5,These are both,great dane,warmup
57,NA,Thu Jul 25 2019 15:20:42 GMT-0600 (Mountain Daylight Time),images/dog_parade_small.png,4,NA,NA,That's a small ,no,1,3OYHVNTV5TMK21R7TUK0R26WHDAOKT,3OCHAWUVGP8AJU3SKNCYYZTDDIBXK7,NA,yes,Another animal belongs to the group.,You say to your friend:,25,dog,,NA,NA,graduated_college,A2FEPNA8OA1UE,english,male,,NA,You see a group of animals.,1,1564089642700,images/chihuahua.jpg,1.5,,NA,main
57,NA,Thu Jul 25 2019 15:20:42 GMT-0600 (Mountain Daylight Time),images/fish-parade.png,4,NA,NA,That's a small ,no,1,3OYHVNTV5TMK21R7TUK0R26WHDAOKT,3OCHAWUVGP8AJU3SKNCYYZTDDIBXK7,NA,yes,Another animal belongs to the group.,You say to your friend:,25,fish,,NA,NA,graduated_college,A2FEPNA8OA1UE,english,male,,NA,You see a group of animals.,2,1564089642700,images/goldfish.png,1.5,,NA,main
57,NA,Thu Jul 25 2019 15:20:42 GMT-0600 (Mountain Daylight Time),images/flower-parade.png,4,NA,NA,That's a big ,no,1,3OYHVNTV5TMK21R7TUK0R26WHDAOKT,3OCHAWUVGP8AJU3SKNCYYZTDDIBXK7,NA,yes,Another plant belongs to the group.,You say to your friend:,25,flower,,NA,NA,graduated_college,A2FEPNA8OA1UE,english,male,,NA,You see a group of plants.,3,1564089642700,images/sunflower.png,1.5,,NA,main
56,little monkey fella,Thu Jul 25 2019 14:11:18 GMT-0700 (Pacific Daylight Time),NA,4,images/gorilla.jpg,spider monkey,This is a ,nope,2,38VTL6WC4A1TEWA6SUPSR4LGYXEY5T,3BXQMRHWK0MDSE900UERT5MD85WMUG,gorilla,yes,Please label the pictures below.,NA,35,NA,"well i don't get it, but ok, good luck to you",images/spidermonkey.jpg,apes,some_college,A2CWJRAEFZ44HU,english,male,NA,monkeys|apes,NA,1,1564089078863,NA,1.25,These are both,gorilla,warmup
56,spider monkey,Thu Jul 25 2019 14:11:18 GMT-0700 (Pacific Daylight Time),NA,4,images/gorilla.jpg,spider monkey,This is a ,nope,2,38VTL6WC4A1TEWA6SUPSR4LGYXEY5T,3BXQMRHWK0MDSE900UERT5MD85WMUG,gorilla,yes,Please label the pictures below.,NA,35,NA,"well i don't get it, but ok, good luck to you",images/spidermonkey.jpg,apes,some_college,A2CWJRAEFZ44HU,english,male,NA,monkeys|apes,NA,1,1564089078863,NA,1.25,These are both,gorilla,warmup
56,swan,Thu Jul 25 2019 14:11:18 GMT-0700 (Pacific Daylight Time),NA,4,images/colibri.jpg,swan,This is a ,nope,2,38VTL6WC4A1TEWA6SUPSR4LGYXEY5T,3BXQMRHWK0MDSE900UERT5MD85WMUG,hummingbird,yes,Please label the pictures below.,NA,35,NA,"well i don't get it, but ok, good luck to you",images/swan.jpg,birds,some_college,A2CWJRAEFZ44HU,english,male,NA,birds,NA,2,1564089078863,NA,1.25,These are both,hummingbird,warmup
56,marlin,Thu Jul 25 2019 14:11:18 GMT-0700 (Pacific Daylight Time),NA,4,images/goldfish.png,swordfish,This is a ,nope,2,38VTL6WC4A1TEWA6SUPSR4LGYXEY5T,3BXQMRHWK0MDSE900UERT5MD85WMUG,goldfish,yes,Please label the pictures below.,NA,35,NA,"well i don't get it, but ok, good luck to you",images/swordfish.jpg,fish,some_college,A2CWJRAEFZ44HU,english,male,NA,fish,NA,3,1564089078863,NA,1.25,These are both,goldfish,warmup
56,swordfish,Thu Jul 25 2019 14:11:18 GMT-0700 (Pacific Daylight Time),NA,4,images/goldfish.png,swordfish,This is a ,nope,2,38VTL6WC4A1TEWA6SUPSR4LGYXEY5T,3BXQMRHWK0MDSE900UERT5MD85WMUG,goldfish,yes,Please label the pictures below.,NA,35,NA,"well i don't get it, but ok, good luck to you",images/swordfish.jpg,fish,some_college,A2CWJRAEFZ44HU,english,male,NA,fish,NA,3,1564089078863,NA,1.25,These are both,goldfish,warmup
56,NA,Thu Jul 25 2019 14:11:18 GMT-0700 (Pacific Daylight Time),images/bird-parade.png,4,NA,NA,That's a big ,nope,2,38VTL6WC4A1TEWA6SUPSR4LGYXEY5T,3BXQMRHWK0MDSE900UERT5MD85WMUG,NA,yes,Another animal belongs to the group.,You say to your friend:,35,swan,"well i don't get it, but ok, good luck to you",NA,NA,some_college,A2CWJRAEFZ44HU,english,male,,NA,You see a group of animals.,1,1564089078863,images/swan.jpg,1.25,,NA,main
56,NA,Thu Jul 25 2019 14:11:18 GMT-0700 (Pacific Daylight Time),images/monkey-parade-small.png,4,NA,NA,That's a small ,nope,2,38VTL6WC4A1TEWA6SUPSR4LGYXEY5T,3BXQMRHWK0MDSE900UERT5MD85WMUG,NA,yes,Another animal belongs to the group.,You say to your friend:,35,spider monkey,"well i don't get it, but ok, good luck to you",NA,NA,some_college,A2CWJRAEFZ44HU,english,male,,NA,You see a group of animals.,2,1564089078863,images/spidermonkey.jpg,1.25,,NA,main
56,NA,Thu Jul 25 2019 14:11:18 GMT-0700 (Pacific Daylight Time),images/fish-parade.png,4,NA,NA,That's a small ,nope,2,38VTL6WC4A1TEWA6SUPSR4LGYXEY5T,3BXQMRHWK0MDSE900UERT5MD85WMUG,NA,yes,Another animal belongs to the group.,You say to your friend:,35,goldfish,"well i don't get it, but ok, good luck to you",NA,NA,some_college,A2CWJRAEFZ44HU,english,male,,NA,You see a group of animals.,3,1564089078863,images/goldfish.png,1.25,,NA,main
56,chihuahua,Thu Jul 25 2019 14:11:18 GMT-0700 (Pacific Daylight Time),NA,4,images/great-dane.jpg,chihuahua,This is a ,nope,2,38VTL6WC4A1TEWA6SUPSR4LGYXEY5T,3BXQMRHWK0MDSE900UERT5MD85WMUG,great dane,yes,Please label the pictures below.,NA,35,NA,"well i don't get it, but ok, good luck to you",images/chihuahua.jpg,dogs,some_college,A2CWJRAEFZ44HU,english,male,NA,dogs,NA,1,1564089078863,NA,1.25,These are both,labrador,warmup
56,chihuahua,Thu Jul 25 2019 14:11:18 GMT-0700 (Pacific Daylight Time),NA,4,images/great-dane.jpg,chihuahua,This is a ,nope,2,38VTL6WC4A1TEWA6SUPSR4LGYXEY5T,3BXQMRHWK0MDSE900UERT5MD85WMUG,great dane,yes,Please label the pictures below.,NA,35,NA,"well i don't get it, but ok, good luck to you",images/chihuahua.jpg,dogs,some_college,A2CWJRAEFZ44HU,english,male,NA,dogs,NA,1,1564089078863,NA,1.25,These are both,great dane,warmup
56,spruce,Thu Jul 25 2019 14:11:18 GMT-0700 (Pacific Daylight Time),NA,4,images/bonsai.jpg,redwood|sequoia,This is a ,nope,2,38VTL6WC4A1TEWA6SUPSR4LGYXEY5T,3BXQMRHWK0MDSE900UERT5MD85WMUG,bonsai,yes,Please label the pictures below.,NA,35,NA,"well i don't get it, but ok, good luck to you",images/sequoia.jpg,tree,some_college,A2CWJRAEFZ44HU,english,male,NA,trees,NA,2,1564089078863,NA,1.25,These are both,bonsai,warmup
56,redwood,Thu Jul 25 2019 14:11:18 GMT-0700 (Pacific Daylight Time),NA,4,images/bonsai.jpg,redwood|sequoia,This is a ,nope,2,38VTL6WC4A1TEWA6SUPSR4LGYXEY5T,3BXQMRHWK0MDSE900UERT5MD85WMUG,bonsai,yes,Please label the pictures below.,NA,35,NA,"well i don't get it, but ok, good luck to you",images/sequoia.jpg,tree,some_college,A2CWJRAEFZ44HU,english,male,NA,trees,NA,2,1564089078863,NA,1.25,These are both,bonsai,warmup
56,redwood,Thu Jul 25 2019 14:11:18 GMT-0700 (Pacific Daylight Time),NA,4,images/bonsai.jpg,redwood|sequoia,This is a ,nope,2,38VTL6WC4A1TEWA6SUPSR4LGYXEY5T,3BXQMRHWK0MDSE900UERT5MD85WMUG,bonsai,yes,Please label the pictures below.,NA,35,NA,"well i don't get it, but ok, good luck to you",images/sequoia.jpg,trees,some_college,A2CWJRAEFZ44HU,english,male,NA,trees,NA,2,1564089078863,NA,1.25,These are both,bonsai,warmup
56,daisy,Thu Jul 25 2019 14:11:18 GMT-0700 (Pacific Daylight Time),NA,4,images/sunflower.png,daisy,This is a ,nope,2,38VTL6WC4A1TEWA6SUPSR4LGYXEY5T,3BXQMRHWK0MDSE900UERT5MD85WMUG,sunflower,yes,Please label the pictures below.,NA,35,NA,"well i don't get it, but ok, good luck to you",images/daisy.png,flowers,some_college,A2CWJRAEFZ44HU,english,male,NA,flowers,NA,3,1564089078863,NA,1.25,These are both,sunflower,warmup
56,NA,Thu Jul 25 2019 14:11:18 GMT-0700 (Pacific Daylight Time),images/tree-parade.png,4,NA,NA,That's a small ,nope,2,38VTL6WC4A1TEWA6SUPSR4LGYXEY5T,3BXQMRHWK0MDSE900UERT5MD85WMUG,NA,yes,Another plant belongs to the group.,You say to your friend:,35,bonsai,"well i don't get it, but ok, good luck to you",NA,NA,some_college,A2CWJRAEFZ44HU,english,male,,NA,You see a group of plants.,1,1564089078863,images/bonsai.jpg,1.25,,NA,main
56,NA,Thu Jul 25 2019 14:11:18 GMT-0700 (Pacific Daylight Time),images/flower-parade.png,4,NA,NA,That's a big ,nope,2,38VTL6WC4A1TEWA6SUPSR4LGYXEY5T,3BXQMRHWK0MDSE900UERT5MD85WMUG,NA,yes,Another plant belongs to the group.,You say to your friend:,35,sunflower,"well i don't get it, but ok, good luck to you",NA,NA,some_college,A2CWJRAEFZ44HU,english,male,,NA,You see a group of plants.,2,1564089078863,images/sunflower.png,1.25,,NA,main
56,NA,Thu Jul 25 2019 14:11:18 GMT-0700 (Pacific Daylight Time),images/dog_parade.png,4,NA,NA,That's a big ,nope,2,38VTL6WC4A1TEWA6SUPSR4LGYXEY5T,3BXQMRHWK0MDSE900UERT5MD85WMUG,NA,yes,Another animal belongs to the group.,You say to your friend:,35,great dane,"well i don't get it, but ok, good luck to you",NA,NA,some_college,A2CWJRAEFZ44HU,english,male,,NA,You see a group of animals.,3,1564089078863,images/great-dane.jpg,1.25,,NA,main
55,monkey,Thu Jul 25 2019 17:06:51 GMT-0400 (Eastern Daylight Time),NA,4,images/gorilla.jpg,spider monkey,This is a ,No problems.,1,38VTL6WC4A1TEWA6SUPSR4LGYXEY5T,3DH6GAKTYZDU8USOPK1A4SOZJXIZY1,gorilla,yes,Please label the pictures below.,NA,44,NA,"Nothing, thanks.",images/spidermonkey.jpg,primates,some_college,A2RQMEPIHW5BOS,English,female,NA,monkeys|apes,NA,1,1564088811614,NA,1.10,These are both,gorilla,warmup
55,spider monkey,Thu Jul 25 2019 17:06:51 GMT-0400 (Eastern Daylight Time),NA,4,images/gorilla.jpg,spider monkey,This is a ,No problems.,1,38VTL6WC4A1TEWA6SUPSR4LGYXEY5T,3DH6GAKTYZDU8USOPK1A4SOZJXIZY1,gorilla,yes,Please label the pictures below.,NA,44,NA,"Nothing, thanks.",images/spidermonkey.jpg,apes,some_college,A2RQMEPIHW5BOS,English,female,NA,monkeys|apes,NA,1,1564088811614,NA,1.10,These are both,gorilla,warmup
55,daisy,Thu Jul 25 2019 17:06:51 GMT-0400 (Eastern Daylight Time),NA,4,images/sunflower.png,daisy,This is a ,No problems.,1,38VTL6WC4A1TEWA6SUPSR4LGYXEY5T,3DH6GAKTYZDU8USOPK1A4SOZJXIZY1,sunflower,yes,Please label the pictures below.,NA,44,NA,"Nothing, thanks.",images/daisy.png,flowers,some_college,A2RQMEPIHW5BOS,English,female,NA,flowers,NA,2,1564088811614,NA,1.10,These are both,sunflower,warmup
55,redwood,Thu Jul 25 2019 17:06:51 GMT-0400 (Eastern Daylight Time),NA,4,images/bonsai.jpg,redwood|sequoia,This is a ,No problems.,1,38VTL6WC4A1TEWA6SUPSR4LGYXEY5T,3DH6GAKTYZDU8USOPK1A4SOZJXIZY1,bonsai,yes,Please label the pictures below.,NA,44,NA,"Nothing, thanks.",images/sequoia.jpg,trees,some_college,A2RQMEPIHW5BOS,English,female,NA,trees,NA,3,1564088811614,NA,1.10,These are both,bonsai,warmup
55,NA,Thu Jul 25 2019 17:06:51 GMT-0400 (Eastern Daylight Time),images/tree-parade.png,4,NA,NA,That ,No problems.,1,38VTL6WC4A1TEWA6SUPSR4LGYXEY5T,3DH6GAKTYZDU8USOPK1A4SOZJXIZY1,NA,yes,Another plant belongs to the group.,You say to your friend:,44,tree,"Nothing, thanks.",NA,NA,some_college,A2RQMEPIHW5BOS,English,female,,NA,You see a group of plants.,1,1564088811614,images/sequoia.jpg,1.10, is big.,NA,main
55,NA,Thu Jul 25 2019 17:06:51 GMT-0400 (Eastern Daylight Time),images/flower-parade.png,4,NA,NA,That ,No problems.,1,38VTL6WC4A1TEWA6SUPSR4LGYXEY5T,3DH6GAKTYZDU8USOPK1A4SOZJXIZY1,NA,yes,Another plant belongs to the group.,You say to your friend:,44,sunflower,"Nothing, thanks.",NA,NA,some_college,A2RQMEPIHW5BOS,English,female,,NA,You see a group of plants.,2,1564088811614,images/sunflower.png,1.10, is big.,NA,main
55,NA,Thu Jul 25 2019 17:06:51 GMT-0400 (Eastern Daylight Time),images/monkey-parade.png,4,NA,NA,That ,No problems.,1,38VTL6WC4A1TEWA6SUPSR4LGYXEY5T,3DH6GAKTYZDU8USOPK1A4SOZJXIZY1,NA,yes,Another animal belongs to the group.,You say to your friend:,44,gorilla,"Nothing, thanks.",NA,NA,some_college,A2RQMEPIHW5BOS,English,female,,NA,You see a group of animals.,3,1564088811614,images/gorilla.jpg,1.10, is big.,NA,main
55,swan,Thu Jul 25 2019 17:06:51 GMT-0400 (Eastern Daylight Time),NA,4,images/colibri.jpg,swan,This is a ,No problems.,1,38VTL6WC4A1TEWA6SUPSR4LGYXEY5T,3DH6GAKTYZDU8USOPK1A4SOZJXIZY1,hummingbird,yes,Please label the pictures below.,NA,44,NA,"Nothing, thanks.",images/swan.jpg,birds,some_college,A2RQMEPIHW5BOS,English,female,NA,birds,NA,1,1564088811614,NA,1.10,These are both,hummingbird,warmup
55,chihuahua,Thu Jul 25 2019 17:06:51 GMT-0400 (Eastern Daylight Time),NA,4,images/great-dane.jpg,chihuahua,This is a ,No problems.,1,38VTL6WC4A1TEWA6SUPSR4LGYXEY5T,3DH6GAKTYZDU8USOPK1A4SOZJXIZY1,great dane,yes,Please label the pictures below.,NA,44,NA,"Nothing, thanks.",images/chihuahua.jpg,dogs,some_college,A2RQMEPIHW5BOS,English,female,NA,dogs,NA,2,1564088811614,NA,1.10,These are both,jhyfj,warmup
55,chihuahua,Thu Jul 25 2019 17:06:51 GMT-0400 (Eastern Daylight Time),NA,4,images/great-dane.jpg,chihuahua,This is a ,No problems.,1,38VTL6WC4A1TEWA6SUPSR4LGYXEY5T,3DH6GAKTYZDU8USOPK1A4SOZJXIZY1,great dane,yes,Please label the pictures below.,NA,44,NA,"Nothing, thanks.",images/chihuahua.jpg,dogs,some_college,A2RQMEPIHW5BOS,English,female,NA,dogs,NA,2,1564088811614,NA,1.10,These are both,great dane,warmup
55,swordfish,Thu Jul 25 2019 17:06:51 GMT-0400 (Eastern Daylight Time),NA,4,images/goldfish.png,swordfish,This is a ,No problems.,1,38VTL6WC4A1TEWA6SUPSR4LGYXEY5T,3DH6GAKTYZDU8USOPK1A4SOZJXIZY1,goldfish,yes,Please label the pictures below.,NA,44,NA,"Nothing, thanks.",images/swordfish.jpg,fish,some_college,A2RQMEPIHW5BOS,English,female,NA,fish,NA,3,1564088811614,NA,1.10,These are both,goldfish,warmup
55,NA,Thu Jul 25 2019 17:06:51 GMT-0400 (Eastern Daylight Time),images/fish-parade.png,4,NA,NA,That ,No problems.,1,38VTL6WC4A1TEWA6SUPSR4LGYXEY5T,3DH6GAKTYZDU8USOPK1A4SOZJXIZY1,NA,yes,Another animal belongs to the group.,You say to your friend:,44,goldfish,"Nothing, thanks.",NA,NA,some_college,A2RQMEPIHW5BOS,English,female,,NA,You see a group of animals.,1,1564088811614,images/goldfish.png,1.10, is small.,NA,main
55,NA,Thu Jul 25 2019 17:06:51 GMT-0400 (Eastern Daylight Time),images/dog_parade.png,4,NA,NA,That ,No problems.,1,38VTL6WC4A1TEWA6SUPSR4LGYXEY5T,3DH6GAKTYZDU8USOPK1A4SOZJXIZY1,NA,yes,Another animal belongs to the group.,You say to your friend:,44,great dane,"Nothing, thanks.",NA,NA,some_college,A2RQMEPIHW5BOS,English,female,,NA,You see a group of animals.,2,1564088811614,images/great-dane.jpg,1.10, is big.,NA,main
55,NA,Thu Jul 25 2019 17:06:51 GMT-0400 (Eastern Daylight Time),images/bird-parade.png,4,NA,NA,That ,No problems.,1,38VTL6WC4A1TEWA6SUPSR4LGYXEY5T,3DH6GAKTYZDU8USOPK1A4SOZJXIZY1,NA,yes,Another animal belongs to the group.,You say to your friend:,44,swan,"Nothing, thanks.",NA,NA,some_college,A2RQMEPIHW5BOS,English,female,,NA,You see a group of animals.,3,1564088811614,images/swan.jpg,1.10, is big.,NA,main
54,shark,Thu Jul 25 2019 17:04:56 GMT-0400 (Eastern Daylight Time),NA,4,images/goldfish.png,swordfish,This is a ,,2,3OYHVNTV5TMK21R7TUK0R26WHDAOKT,3VHHR074H45ROLFJNAK1J0T40P1L73,goldfish,yes,Please label the pictures below.,NA,30,NA,"Great survey, gives you a chance to learn too",images/swordfish.jpg,fishes,higher_degree,ATDLGSQ11C6OF,English,female,NA,fish,NA,1,1564088696441,NA,1,These are both,fish,warmup
54,shark,Thu Jul 25 2019 17:04:56 GMT-0400 (Eastern Daylight Time),NA,4,images/goldfish.png,swordfish,This is a ,,2,3OYHVNTV5TMK21R7TUK0R26WHDAOKT,3VHHR074H45ROLFJNAK1J0T40P1L73,goldfish,yes,Please label the pictures below.,NA,30,NA,"Great survey, gives you a chance to learn too",images/swordfish.jpg,fishes,higher_degree,ATDLGSQ11C6OF,English,female,NA,fish,NA,1,1564088696441,NA,1,These are both,fish,warmup
54,swordfish,Thu Jul 25 2019 17:04:56 GMT-0400 (Eastern Daylight Time),NA,4,images/goldfish.png,swordfish,This is a ,,2,3OYHVNTV5TMK21R7TUK0R26WHDAOKT,3VHHR074H45ROLFJNAK1J0T40P1L73,goldfish,yes,Please label the pictures below.,NA,30,NA,"Great survey, gives you a chance to learn too",images/swordfish.jpg,fish,higher_degree,ATDLGSQ11C6OF,English,female,NA,fish,NA,1,1564088696441,NA,1,These are both,goldfish,warmup
54,lily,Thu Jul 25 2019 17:04:56 GMT-0400 (Eastern Daylight Time),NA,4,images/sunflower.png,daisy,This is a ,,2,3OYHVNTV5TMK21R7TUK0R26WHDAOKT,3VHHR074H45ROLFJNAK1J0T40P1L73,sunflower,yes,Please label the pictures below.,NA,30,NA,"Great survey, gives you a chance to learn too",images/daisy.png,flower,higher_degree,ATDLGSQ11C6OF,English,female,NA,flowers,NA,2,1564088696441,NA,1,These are both,sunflower,warmup
54,daisy,Thu Jul 25 2019 17:04:56 GMT-0400 (Eastern Daylight Time),NA,4,images/sunflower.png,daisy,This is a ,,2,3OYHVNTV5TMK21R7TUK0R26WHDAOKT,3VHHR074H45ROLFJNAK1J0T40P1L73,sunflower,yes,Please label the pictures below.,NA,30,NA,"Great survey, gives you a chance to learn too",images/daisy.png,flower,higher_degree,ATDLGSQ11C6OF,English,female,NA,flowers,NA,2,1564088696441,NA,1,These are both,sunflower,warmup
54,daisy,Thu Jul 25 2019 17:04:56 GMT-0400 (Eastern Daylight Time),NA,4,images/sunflower.png,daisy,This is a ,,2,3OYHVNTV5TMK21R7TUK0R26WHDAOKT,3VHHR074H45ROLFJNAK1J0T40P1L73,sunflower,yes,Please label the pictures below.,NA,30,NA,"Great survey, gives you a chance to learn too",images/daisy.png,flowers,higher_degree,ATDLGSQ11C6OF,English,female,NA,flowers,NA,2,1564088696441,NA,1,These are both,sunflower,warmup
54,wolf,Thu Jul 25 2019 17:04:56 GMT-0400 (Eastern Daylight Time),NA,4,images/great-dane.jpg,chihuahua,This is a ,,2,3OYHVNTV5TMK21R7TUK0R26WHDAOKT,3VHHR074H45ROLFJNAK1J0T40P1L73,great dane,yes,Please label the pictures below.,NA,30,NA,"Great survey, gives you a chance to learn too",images/chihuahua.jpg,animals,higher_degree,ATDLGSQ11C6OF,English,female,NA,dogs,NA,3,1564088696441,NA,1,These are both,dog,warmup
54,chihuahua,Thu Jul 25 2019 17:04:56 GMT-0400 (Eastern Daylight Time),NA,4,images/great-dane.jpg,chihuahua,This is a ,,2,3OYHVNTV5TMK21R7TUK0R26WHDAOKT,3VHHR074H45ROLFJNAK1J0T40P1L73,great dane,yes,Please label the pictures below.,NA,30,NA,"Great survey, gives you a chance to learn too",images/chihuahua.jpg,dogs,higher_degree,ATDLGSQ11C6OF,English,female,NA,dogs,NA,3,1564088696441,NA,1,These are both,great dane,warmup
54,NA,Thu Jul 25 2019 17:04:56 GMT-0400 (Eastern Daylight Time),images/dog_parade_small.png,4,NA,NA,That ,,2,3OYHVNTV5TMK21R7TUK0R26WHDAOKT,3VHHR074H45ROLFJNAK1J0T40P1L73,NA,yes,Another animal belongs to the group.,You say to your friend:,30,chihuahua,"Great survey, gives you a chance to learn too",NA,NA,higher_degree,ATDLGSQ11C6OF,English,female,,NA,You see a group of animals.,1,1564088696441,images/chihuahua.jpg,1, is small.,NA,main
54,NA,Thu Jul 25 2019 17:04:56 GMT-0400 (Eastern Daylight Time),images/fish-parade.png,4,NA,NA,That ,,2,3OYHVNTV5TMK21R7TUK0R26WHDAOKT,3VHHR074H45ROLFJNAK1J0T40P1L73,NA,yes,Another animal belongs to the group.,You say to your friend:,30,swordfish,"Great survey, gives you a chance to learn too",NA,NA,higher_degree,ATDLGSQ11C6OF,English,female,,NA,You see a group of animals.,2,1564088696441,images/swordfish.jpg,1, is big.,NA,main
54,NA,Thu Jul 25 2019 17:04:56 GMT-0400 (Eastern Daylight Time),images/flower-parade.png,4,NA,NA,That ,,2,3OYHVNTV5TMK21R7TUK0R26WHDAOKT,3VHHR074H45ROLFJNAK1J0T40P1L73,NA,yes,Another plant belongs to the group.,You say to your friend:,30,sunflower,"Great survey, gives you a chance to learn too",NA,NA,higher_degree,ATDLGSQ11C6OF,English,female,,NA,You see a group of plants.,3,1564088696441,images/sunflower.png,1, is big.,NA,main
54,chimpanzee,Thu Jul 25 2019 17:04:56 GMT-0400 (Eastern Daylight Time),NA,4,images/gorilla.jpg,spider monkey,This is a ,,2,3OYHVNTV5TMK21R7TUK0R26WHDAOKT,3VHHR074H45ROLFJNAK1J0T40P1L73,gorilla,yes,Please label the pictures below.,NA,30,NA,"Great survey, gives you a chance to learn too",images/spidermonkey.jpg,monkeys,higher_degree,ATDLGSQ11C6OF,English,female,NA,monkeys|apes,NA,1,1564088696441,NA,1,These are both,gorilla,warmup
54,"spider monkey\n\nspider monkey\n\nspider monkey",Thu Jul 25 2019 17:04:56 GMT-0400 (Eastern Daylight Time),NA,4,images/gorilla.jpg,spider monkey,This is a ,,2,3OYHVNTV5TMK21R7TUK0R26WHDAOKT,3VHHR074H45ROLFJNAK1J0T40P1L73,gorilla,yes,Please label the pictures below.,NA,30,NA,"Great survey, gives you a chance to learn too",images/spidermonkey.jpg,monkeys,higher_degree,ATDLGSQ11C6OF,English,female,NA,monkeys|apes,NA,1,1564088696441,NA,1,These are both,gorilla,warmup
54,"spider monkey\n\nspider monkey\n\nspider monkey",Thu Jul 25 2019 17:04:56 GMT-0400 (Eastern Daylight Time),NA,4,images/gorilla.jpg,spider monkey,This is a ,,2,3OYHVNTV5TMK21R7TUK0R26WHDAOKT,3VHHR074H45ROLFJNAK1J0T40P1L73,gorilla,yes,Please label the pictures below.,NA,30,NA,"Great survey, gives you a chance to learn too",images/spidermonkey.jpg,monkeys,higher_degree,ATDLGSQ11C6OF,English,female,NA,monkeys|apes,NA,1,1564088696441,NA,1,These are both,gorilla,warmup
54,"spider monkey\n\nspider monkey\n\nspider monkey",Thu Jul 25 2019 17:04:56 GMT-0400 (Eastern Daylight Time),NA,4,images/gorilla.jpg,spider monkey,This is a ,,2,3OYHVNTV5TMK21R7TUK0R26WHDAOKT,3VHHR074H45ROLFJNAK1J0T40P1L73,gorilla,yes,Please label the pictures below.,NA,30,NA,"Great survey, gives you a chance to learn too",images/spidermonkey.jpg,monkeys,higher_degree,ATDLGSQ11C6OF,English,female,NA,monkeys|apes,NA,1,1564088696441,NA,1,These are both,gorilla,warmup
54,"spider monkey\n\nspider monkey\n\nspider monkey",Thu Jul 25 2019 17:04:56 GMT-0400 (Eastern Daylight Time),NA,4,images/gorilla.jpg,spider monkey,This is a ,,2,3OYHVNTV5TMK21R7TUK0R26WHDAOKT,3VHHR074H45ROLFJNAK1J0T40P1L73,gorilla,yes,Please label the pictures below.,NA,30,NA,"Great survey, gives you a chance to learn too",images/spidermonkey.jpg,monkey,higher_degree,ATDLGSQ11C6OF,English,female,NA,monkeys|apes,NA,1,1564088696441,NA,1,These are both,gorilla,warmup
54,"spider monkey\n\nspider monkey\n\nspider monkey",Thu Jul 25 2019 17:04:56 GMT-0400 (Eastern Daylight Time),NA,4,images/gorilla.jpg,spider monkey,This is a ,,2,3OYHVNTV5TMK21R7TUK0R26WHDAOKT,3VHHR074H45ROLFJNAK1J0T40P1L73,gorilla,yes,Please label the pictures below.,NA,30,NA,"Great survey, gives you a chance to learn too",images/spidermonkey.jpg,apes,higher_degree,ATDLGSQ11C6OF,English,female,NA,monkeys|apes,NA,1,1564088696441,NA,1,These are both,gorilla,warmup
54,"spider monkey\n\nspider monkey\n\nspider monkey",Thu Jul 25 2019 17:04:56 GMT-0400 (Eastern Daylight Time),NA,4,images/gorilla.jpg,spider monkey,This is a ,,2,3OYHVNTV5TMK21R7TUK0R26WHDAOKT,3VHHR074H45ROLFJNAK1J0T40P1L73,gorilla,yes,Please label the pictures below.,NA,30,NA,"Great survey, gives you a chance to learn too",images/spidermonkey.jpg,apes,higher_degree,ATDLGSQ11C6OF,English,female,NA,monkeys|apes,NA,1,1564088696441,NA,1,These are both,[dd,warmup
54,"spider monkey\n\nspider monkey\n\nspider monkey",Thu Jul 25 2019 17:04:56 GMT-0400 (Eastern Daylight Time),NA,4,images/gorilla.jpg,spider monkey,This is a ,,2,3OYHVNTV5TMK21R7TUK0R26WHDAOKT,3VHHR074H45ROLFJNAK1J0T40P1L73,gorilla,yes,Please label the pictures below.,NA,30,NA,"Great survey, gives you a chance to learn too",images/spidermonkey.jpg,apes,higher_degree,ATDLGSQ11C6OF,English,female,NA,monkeys|apes,NA,1,1564088696441,NA,1,These are both,gorilla,warmup
54,"spider monkey\n\nspider monkey\n\nspider monkey",Thu Jul 25 2019 17:04:56 GMT-0400 (Eastern Daylight Time),NA,4,images/gorilla.jpg,spider monkey,This is a ,,2,3OYHVNTV5TMK21R7TUK0R26WHDAOKT,3VHHR074H45ROLFJNAK1J0T40P1L73,gorilla,yes,Please label the pictures below.,NA,30,NA,"Great survey, gives you a chance to learn too",images/spidermonkey.jpg,apes,higher_degree,ATDLGSQ11C6OF,English,female,NA,monkeys|apes,NA,1,1564088696441,NA,1,These are both,gorilla,warmup
54,"spider monkey\n\nspider monkey\n\nspider monkey",Thu Jul 25 2019 17:04:56 GMT-0400 (Eastern Daylight Time),NA,4,images/gorilla.jpg,spider monkey,This is a ,,2,3OYHVNTV5TMK21R7TUK0R26WHDAOKT,3VHHR074H45ROLFJNAK1J0T40P1L73,gorilla,yes,Please label the pictures below.,NA,30,NA,"Great survey, gives you a chance to learn too",images/spidermonkey.jpg,apes,higher_degree,ATDLGSQ11C6OF,English,female,NA,monkeys|apes,NA,1,1564088696441,NA,1,These are both,gorilla,warmup
54,"spider monkey\n\nspider monkey\n\nspider monkey",Thu Jul 25 2019 17:04:56 GMT-0400 (Eastern Daylight Time),NA,4,images/gorilla.jpg,spider monkey,This is a ,,2,3OYHVNTV5TMK21R7TUK0R26WHDAOKT,3VHHR074H45ROLFJNAK1J0T40P1L73,gorilla,yes,Please label the pictures below.,NA,30,NA,"Great survey, gives you a chance to learn too",images/spidermonkey.jpg,apes,higher_degree,ATDLGSQ11C6OF,English,female,NA,monkeys|apes,NA,1,1564088696441,NA,1,These are both,gorilla,warmup
54,"spider monkey\n\nspider monkey\n\nspider monkey",Thu Jul 25 2019 17:04:56 GMT-0400 (Eastern Daylight Time),NA,4,images/gorilla.jpg,spider monkey,This is a ,,2,3OYHVNTV5TMK21R7TUK0R26WHDAOKT,3VHHR074H45ROLFJNAK1J0T40P1L73,gorilla,yes,Please label the pictures below.,NA,30,NA,"Great survey, gives you a chance to learn too",images/spidermonkey.jpg,apes,higher_degree,ATDLGSQ11C6OF,English,female,NA,monkeys|apes,NA,1,1564088696441,NA,1,These are both,gorilla,warmup
54,spider monkey,Thu Jul 25 2019 17:04:56 GMT-0400 (Eastern Daylight Time),NA,4,images/gorilla.jpg,spider monkey,This is a ,,2,3OYHVNTV5TMK21R7TUK0R26WHDAOKT,3VHHR074H45ROLFJNAK1J0T40P1L73,gorilla,yes,Please label the pictures below.,NA,30,NA,"Great survey, gives you a chance to learn too",images/spidermonkey.jpg,apes,higher_degree,ATDLGSQ11C6OF,English,female,NA,monkeys|apes,NA,1,1564088696441,NA,1,These are both,gorilla,warmup
54,swan,Thu Jul 25 2019 17:04:56 GMT-0400 (Eastern Daylight Time),NA,4,images/colibri.jpg,swan,This is a ,,2,3OYHVNTV5TMK21R7TUK0R26WHDAOKT,3VHHR074H45ROLFJNAK1J0T40P1L73,hummingbird,yes,Please label the pictures below.,NA,30,NA,"Great survey, gives you a chance to learn too",images/swan.jpg,birds,higher_degree,ATDLGSQ11C6OF,English,female,NA,birds,NA,2,1564088696441,NA,1,These are both,woodpecker,warmup
54,swan,Thu Jul 25 2019 17:04:56 GMT-0400 (Eastern Daylight Time),NA,4,images/colibri.jpg,swan,This is a ,,2,3OYHVNTV5TMK21R7TUK0R26WHDAOKT,3VHHR074H45ROLFJNAK1J0T40P1L73,hummingbird,yes,Please label the pictures below.,NA,30,NA,"Great survey, gives you a chance to learn too",images/swan.jpg,birds,higher_degree,ATDLGSQ11C6OF,English,female,NA,birds,NA,2,1564088696441,NA,1,These are both,hummingbird,warmup
54,tree,Thu Jul 25 2019 17:04:56 GMT-0400 (Eastern Daylight Time),NA,4,images/bonsai.jpg,redwood|sequoia,This is a ,,2,3OYHVNTV5TMK21R7TUK0R26WHDAOKT,3VHHR074H45ROLFJNAK1J0T40P1L73,bonsai,yes,Please label the pictures below.,NA,30,NA,"Great survey, gives you a chance to learn too",images/sequoia.jpg,plants,higher_degree,ATDLGSQ11C6OF,English,female,NA,trees,NA,3,1564088696441,NA,1,These are both,shrub,warmup
54,redwood,Thu Jul 25 2019 17:04:56 GMT-0400 (Eastern Daylight Time),NA,4,images/bonsai.jpg,redwood|sequoia,This is a ,,2,3OYHVNTV5TMK21R7TUK0R26WHDAOKT,3VHHR074H45ROLFJNAK1J0T40P1L73,bonsai,yes,Please label the pictures below.,NA,30,NA,"Great survey, gives you a chance to learn too",images/sequoia.jpg,trees,higher_degree,ATDLGSQ11C6OF,English,female,NA,trees,NA,3,1564088696441,NA,1,These are both,bonsai,warmup
54,NA,Thu Jul 25 2019 17:04:56 GMT-0400 (Eastern Daylight Time),images/monkey-parade.png,4,NA,NA,That ,,2,3OYHVNTV5TMK21R7TUK0R26WHDAOKT,3VHHR074H45ROLFJNAK1J0T40P1L73,NA,yes,Another animal belongs to the group.,You say to your friend:,30,chimpanzee,"Great survey, gives you a chance to learn too",NA,NA,higher_degree,ATDLGSQ11C6OF,English,female,,NA,You see a group of animals.,1,1564088696441,images/gorilla.jpg,1, is big.,NA,main
54,NA,Thu Jul 25 2019 17:04:56 GMT-0400 (Eastern Daylight Time),images/tree-parade.png,4,NA,NA,That ,,2,3OYHVNTV5TMK21R7TUK0R26WHDAOKT,3VHHR074H45ROLFJNAK1J0T40P1L73,NA,yes,Another plant belongs to the group.,You say to your friend:,30,bonsai,"Great survey, gives you a chance to learn too",NA,NA,higher_degree,ATDLGSQ11C6OF,English,female,,NA,You see a group of plants.,2,1564088696441,images/bonsai.jpg,1, is small.,NA,main
54,NA,Thu Jul 25 2019 17:04:56 GMT-0400 (Eastern Daylight Time),images/bird-parade.png,4,NA,NA,That ,,2,3OYHVNTV5TMK21R7TUK0R26WHDAOKT,3VHHR074H45ROLFJNAK1J0T40P1L73,NA,yes,Another animal belongs to the group.,You say to your friend:,30,swan,"Great survey, gives you a chance to learn too",NA,NA,higher_degree,ATDLGSQ11C6OF,English,female,,NA,You see a group of animals.,3,1564088696441,images/swan.jpg,1, is big.,NA,main
53,flower,Thu Jul 25 2019 17:04:15 GMT-0400 (Eastern Daylight Time),NA,4,images/sunflower.png,daisy,This is a ,no,2,3MD8CKRQZZBSOUD5311SKIBODBUJRY,3KWTYT0871RC1H10ZH54LGF89J6L5O,sunflower,yes,Please label the pictures below.,NA,28,NA,none,images/daisy.png,flowers,graduated_college,A3UV55HC87DO9C,English,male,NA,flowers,NA,1,1564088655782,NA,1.20,These are both,sunflower,warmup
53,daisy,Thu Jul 25 2019 17:04:15 GMT-0400 (Eastern Daylight Time),NA,4,images/sunflower.png,daisy,This is a ,no,2,3MD8CKRQZZBSOUD5311SKIBODBUJRY,3KWTYT0871RC1H10ZH54LGF89J6L5O,sunflower,yes,Please label the pictures below.,NA,28,NA,none,images/daisy.png,flowers,graduated_college,A3UV55HC87DO9C,English,male,NA,flowers,NA,1,1564088655782,NA,1.20,These are both,sunflower,warmup
53,Chihuahua,Thu Jul 25 2019 17:04:15 GMT-0400 (Eastern Daylight Time),NA,4,images/great-dane.jpg,chihuahua,This is a ,no,2,3MD8CKRQZZBSOUD5311SKIBODBUJRY,3KWTYT0871RC1H10ZH54LGF89J6L5O,great dane,yes,Please label the pictures below.,NA,28,NA,none,images/chihuahua.jpg,dogs,graduated_college,A3UV55HC87DO9C,English,male,NA,dogs,NA,2,1564088655782,NA,1.20,These are both,doberman,warmup
53,Chihuahua,Thu Jul 25 2019 17:04:15 GMT-0400 (Eastern Daylight Time),NA,4,images/great-dane.jpg,chihuahua,This is a ,no,2,3MD8CKRQZZBSOUD5311SKIBODBUJRY,3KWTYT0871RC1H10ZH54LGF89J6L5O,great dane,yes,Please label the pictures below.,NA,28,NA,none,images/chihuahua.jpg,dogs,graduated_college,A3UV55HC87DO9C,English,male,NA,dogs,NA,2,1564088655782,NA,1.20,These are both,great dane,warmup
53,chimp,Thu Jul 25 2019 17:04:15 GMT-0400 (Eastern Daylight Time),NA,4,images/gorilla.jpg,spider monkey,This is a ,no,2,3MD8CKRQZZBSOUD5311SKIBODBUJRY,3KWTYT0871RC1H10ZH54LGF89J6L5O,gorilla,yes,Please label the pictures below.,NA,28,NA,none,images/spidermonkey.jpg,apes,graduated_college,A3UV55HC87DO9C,English,male,NA,monkeys|apes,NA,3,1564088655782,NA,1.20,These are both,gorilla,warmup
53,spider monkey,Thu Jul 25 2019 17:04:15 GMT-0400 (Eastern Daylight Time),NA,4,images/gorilla.jpg,spider monkey,This is a ,no,2,3MD8CKRQZZBSOUD5311SKIBODBUJRY,3KWTYT0871RC1H10ZH54LGF89J6L5O,gorilla,yes,Please label the pictures below.,NA,28,NA,none,images/spidermonkey.jpg,apes,graduated_college,A3UV55HC87DO9C,English,male,NA,monkeys|apes,NA,3,1564088655782,NA,1.20,These are both,gorilla,warmup
53,NA,Thu Jul 25 2019 17:04:15 GMT-0400 (Eastern Daylight Time),images/monkey-parade-small.png,4,NA,NA,That's a small ,no,2,3MD8CKRQZZBSOUD5311SKIBODBUJRY,3KWTYT0871RC1H10ZH54LGF89J6L5O,NA,yes,Another animal belongs to the group.,You say to your friend:,28,spider monkey,none,NA,NA,graduated_college,A3UV55HC87DO9C,English,male,,NA,You see a group of animals.,1,1564088655782,images/spidermonkey.jpg,1.20,,NA,main
53,NA,Thu Jul 25 2019 17:04:15 GMT-0400 (Eastern Daylight Time),images/flower-parade-small.png,4,NA,NA,That's a small ,no,2,3MD8CKRQZZBSOUD5311SKIBODBUJRY,3KWTYT0871RC1H10ZH54LGF89J6L5O,NA,yes,Another plant belongs to the group.,You say to your friend:,28,daisy,none,NA,NA,graduated_college,A3UV55HC87DO9C,English,male,,NA,You see a group of plants.,2,1564088655782,images/daisy.png,1.20,,NA,main
53,NA,Thu Jul 25 2019 17:04:15 GMT-0400 (Eastern Daylight Time),images/dog_parade.png,4,NA,NA,That's a big ,no,2,3MD8CKRQZZBSOUD5311SKIBODBUJRY,3KWTYT0871RC1H10ZH54LGF89J6L5O,NA,yes,Another animal belongs to the group.,You say to your friend:,28,great dane,none,NA,NA,graduated_college,A3UV55HC87DO9C,English,male,,NA,You see a group of animals.,3,1564088655782,images/great-dane.jpg,1.20,,NA,main
53,redwood,Thu Jul 25 2019 17:04:15 GMT-0400 (Eastern Daylight Time),NA,4,images/bonsai.jpg,redwood|sequoia,This is a ,no,2,3MD8CKRQZZBSOUD5311SKIBODBUJRY,3KWTYT0871RC1H10ZH54LGF89J6L5O,bonsai,yes,Please label the pictures below.,NA,28,NA,none,images/sequoia.jpg,trees,graduated_college,A3UV55HC87DO9C,English,male,NA,trees,NA,1,1564088655782,NA,1.20,These are both,bonsai,warmup
53,swam,Thu Jul 25 2019 17:04:15 GMT-0400 (Eastern Daylight Time),NA,4,images/colibri.jpg,swan,This is a ,no,2,3MD8CKRQZZBSOUD5311SKIBODBUJRY,3KWTYT0871RC1H10ZH54LGF89J6L5O,hummingbird,yes,Please label the pictures below.,NA,28,NA,none,images/swan.jpg,birds,graduated_college,A3UV55HC87DO9C,English,male,NA,birds,NA,2,1564088655782,NA,1.20,These are both,hummingbird,warmup
53,swan,Thu Jul 25 2019 17:04:15 GMT-0400 (Eastern Daylight Time),NA,4,images/colibri.jpg,swan,This is a ,no,2,3MD8CKRQZZBSOUD5311SKIBODBUJRY,3KWTYT0871RC1H10ZH54LGF89J6L5O,hummingbird,yes,Please label the pictures below.,NA,28,NA,none,images/swan.jpg,birds,graduated_college,A3UV55HC87DO9C,English,male,NA,birds,NA,2,1564088655782,NA,1.20,These are both,hummingbird,warmup
53,swordfish,Thu Jul 25 2019 17:04:15 GMT-0400 (Eastern Daylight Time),NA,4,images/goldfish.png,swordfish,This is a ,no,2,3MD8CKRQZZBSOUD5311SKIBODBUJRY,3KWTYT0871RC1H10ZH54LGF89J6L5O,goldfish,yes,Please label the pictures below.,NA,28,NA,none,images/swordfish.jpg,fish,graduated_college,A3UV55HC87DO9C,English,male,NA,fish,NA,3,1564088655782,NA,1.20,These are both,goldfish,warmup
53,NA,Thu Jul 25 2019 17:04:15 GMT-0400 (Eastern Daylight Time),images/tree-parade.png,4,NA,NA,That's a small ,no,2,3MD8CKRQZZBSOUD5311SKIBODBUJRY,3KWTYT0871RC1H10ZH54LGF89J6L5O,NA,yes,Another plant belongs to the group.,You say to your friend:,28,bonsai,none,NA,NA,graduated_college,A3UV55HC87DO9C,English,male,,NA,You see a group of plants.,1,1564088655782,images/bonsai.jpg,1.20,,NA,main
53,NA,Thu Jul 25 2019 17:04:15 GMT-0400 (Eastern Daylight Time),images/fish-parade.png,4,NA,NA,That's a small ,no,2,3MD8CKRQZZBSOUD5311SKIBODBUJRY,3KWTYT0871RC1H10ZH54LGF89J6L5O,NA,yes,Another animal belongs to the group.,You say to your friend:,28,goldfish,none,NA,NA,graduated_college,A3UV55HC87DO9C,English,male,,NA,You see a group of animals.,2,1564088655782,images/goldfish.png,1.20,,NA,main
53,NA,Thu Jul 25 2019 17:04:15 GMT-0400 (Eastern Daylight Time),images/bird-parade.png,4,NA,NA,That's a big ,no,2,3MD8CKRQZZBSOUD5311SKIBODBUJRY,3KWTYT0871RC1H10ZH54LGF89J6L5O,NA,yes,Another animal belongs to the group.,You say to your friend:,28,swan,none,NA,NA,graduated_college,A3UV55HC87DO9C,English,male,,NA,You see a group of animals.,3,1564088655782,images/swan.jpg,1.20,,NA,main
52,swan,Thu Jul 25 2019 16:08:32 GMT-0500 (Central Daylight Time),NA,4,images/colibri.jpg,swan,This is a ,,2,38VTL6WC4A1TEWA6SUPSR4LGYXEY5T,3ATTHHXXWBCJDZD4KKRMLJE0LEMXIW,hummingbird,yes,Please label the pictures below.,NA,28,NA,,images/swan.jpg,birds,some_college,A30VAYXB85107X,English,male,NA,birds,NA,1,1564088912390,NA,1.50,These are both,hummingbird,warmup
52,swordfish,Thu Jul 25 2019 16:08:32 GMT-0500 (Central Daylight Time),NA,4,images/goldfish.png,swordfish,This is a ,,2,38VTL6WC4A1TEWA6SUPSR4LGYXEY5T,3ATTHHXXWBCJDZD4KKRMLJE0LEMXIW,goldfish,yes,Please label the pictures below.,NA,28,NA,,images/swordfish.jpg,fish,some_college,A30VAYXB85107X,English,male,NA,fish,NA,2,1564088912390,NA,1.50,These are both,goldfish,warmup
52,chihuahua,Thu Jul 25 2019 16:08:32 GMT-0500 (Central Daylight Time),NA,4,images/great-dane.jpg,chihuahua,This is a ,,2,38VTL6WC4A1TEWA6SUPSR4LGYXEY5T,3ATTHHXXWBCJDZD4KKRMLJE0LEMXIW,great dane,yes,Please label the pictures below.,NA,28,NA,,images/chihuahua.jpg,dogs,some_college,A30VAYXB85107X,English,male,NA,dogs,NA,3,1564088912390,NA,1.50,These are both,lab,warmup
52,chihuahua,Thu Jul 25 2019 16:08:32 GMT-0500 (Central Daylight Time),NA,4,images/great-dane.jpg,chihuahua,This is a ,,2,38VTL6WC4A1TEWA6SUPSR4LGYXEY5T,3ATTHHXXWBCJDZD4KKRMLJE0LEMXIW,great dane,yes,Please label the pictures below.,NA,28,NA,,images/chihuahua.jpg,dogs,some_college,A30VAYXB85107X,English,male,NA,dogs,NA,3,1564088912390,NA,1.50,These are both,great dane,warmup
52,NA,Thu Jul 25 2019 16:08:32 GMT-0500 (Central Daylight Time),images/fish-parade.png,4,NA,NA,That ,,2,38VTL6WC4A1TEWA6SUPSR4LGYXEY5T,3ATTHHXXWBCJDZD4KKRMLJE0LEMXIW,NA,yes,Another animal belongs to the group.,You say to your friend:,28,swordfish,,NA,NA,some_college,A30VAYXB85107X,English,male,,NA,You see a group of animals.,1,1564088912390,images/swordfish.jpg,1.50, is big.,NA,main
52,NA,Thu Jul 25 2019 16:08:32 GMT-0500 (Central Daylight Time),images/bird-parade.png,4,NA,NA,That ,,2,38VTL6WC4A1TEWA6SUPSR4LGYXEY5T,3ATTHHXXWBCJDZD4KKRMLJE0LEMXIW,NA,yes,Another animal belongs to the group.,You say to your friend:,28,swan,,NA,NA,some_college,A30VAYXB85107X,English,male,,NA,You see a group of animals.,2,1564088912390,images/swan.jpg,1.50, is big.,NA,main
52,NA,Thu Jul 25 2019 16:08:32 GMT-0500 (Central Daylight Time),images/dog_parade_small.png,4,NA,NA,That ,,2,38VTL6WC4A1TEWA6SUPSR4LGYXEY5T,3ATTHHXXWBCJDZD4KKRMLJE0LEMXIW,NA,yes,Another animal belongs to the group.,You say to your friend:,28,chihuahua,,NA,NA,some_college,A30VAYXB85107X,English,male,,NA,You see a group of animals.,3,1564088912390,images/chihuahua.jpg,1.50, is small.,NA,main
52,fir,Thu Jul 25 2019 16:08:32 GMT-0500 (Central Daylight Time),NA,4,images/bonsai.jpg,redwood|sequoia,This is a ,,2,38VTL6WC4A1TEWA6SUPSR4LGYXEY5T,3ATTHHXXWBCJDZD4KKRMLJE0LEMXIW,bonsai,yes,Please label the pictures below.,NA,28,NA,,images/sequoia.jpg,tree,some_college,A30VAYXB85107X,English,male,NA,trees,NA,1,1564088912390,NA,1.50,These are both,bonsai,warmup
52,redwood,Thu Jul 25 2019 16:08:32 GMT-0500 (Central Daylight Time),NA,4,images/bonsai.jpg,redwood|sequoia,This is a ,,2,38VTL6WC4A1TEWA6SUPSR4LGYXEY5T,3ATTHHXXWBCJDZD4KKRMLJE0LEMXIW,bonsai,yes,Please label the pictures below.,NA,28,NA,,images/sequoia.jpg,tree,some_college,A30VAYXB85107X,English,male,NA,trees,NA,1,1564088912390,NA,1.50,These are both,bonsai,warmup
52,redwood,Thu Jul 25 2019 16:08:32 GMT-0500 (Central Daylight Time),NA,4,images/bonsai.jpg,redwood|sequoia,This is a ,,2,38VTL6WC4A1TEWA6SUPSR4LGYXEY5T,3ATTHHXXWBCJDZD4KKRMLJE0LEMXIW,bonsai,yes,Please label the pictures below.,NA,28,NA,,images/sequoia.jpg,trees,some_college,A30VAYXB85107X,English,male,NA,trees,NA,1,1564088912390,NA,1.50,These are both,bonsai,warmup
52,monkey,Thu Jul 25 2019 16:08:32 GMT-0500 (Central Daylight Time),NA,4,images/gorilla.jpg,spider monkey,This is a ,,2,38VTL6WC4A1TEWA6SUPSR4LGYXEY5T,3ATTHHXXWBCJDZD4KKRMLJE0LEMXIW,gorilla,yes,Please label the pictures below.,NA,28,NA,,images/spidermonkey.jpg,monkey,some_college,A30VAYXB85107X,English,male,NA,monkeys|apes,NA,2,1564088912390,NA,1.50,These are both,gorilla,warmup
52,spider monkey,Thu Jul 25 2019 16:08:32 GMT-0500 (Central Daylight Time),NA,4,images/gorilla.jpg,spider monkey,This is a ,,2,38VTL6WC4A1TEWA6SUPSR4LGYXEY5T,3ATTHHXXWBCJDZD4KKRMLJE0LEMXIW,gorilla,yes,Please label the pictures below.,NA,28,NA,,images/spidermonkey.jpg,monkey,some_college,A30VAYXB85107X,English,male,NA,monkeys|apes,NA,2,1564088912390,NA,1.50,These are both,gorilla,warmup
52,spider monkey,Thu Jul 25 2019 16:08:32 GMT-0500 (Central Daylight Time),NA,4,images/gorilla.jpg,spider monkey,This is a ,,2,38VTL6WC4A1TEWA6SUPSR4LGYXEY5T,3ATTHHXXWBCJDZD4KKRMLJE0LEMXIW,gorilla,yes,Please label the pictures below.,NA,28,NA,,images/spidermonkey.jpg,monkey,some_college,A30VAYXB85107X,English,male,NA,monkeys|apes,NA,2,1564088912390,NA,1.50,These are both,gorilla,warmup
52,spider monkey,Thu Jul 25 2019 16:08:32 GMT-0500 (Central Daylight Time),NA,4,images/gorilla.jpg,spider monkey,This is a ,,2,38VTL6WC4A1TEWA6SUPSR4LGYXEY5T,3ATTHHXXWBCJDZD4KKRMLJE0LEMXIW,gorilla,yes,Please label the pictures below.,NA,28,NA,,images/spidermonkey.jpg,monkeys,some_college,A30VAYXB85107X,English,male,NA,monkeys|apes,NA,2,1564088912390,NA,1.50,These are both,gorilla,warmup
52,daisy,Thu Jul 25 2019 16:08:32 GMT-0500 (Central Daylight Time),NA,4,images/sunflower.png,daisy,This is a ,,2,38VTL6WC4A1TEWA6SUPSR4LGYXEY5T,3ATTHHXXWBCJDZD4KKRMLJE0LEMXIW,sunflower,yes,Please label the pictures below.,NA,28,NA,,images/daisy.png,flower,some_college,A30VAYXB85107X,English,male,NA,flowers,NA,3,1564088912390,NA,1.50,These are both,sunflower,warmup
52,daisy,Thu Jul 25 2019 16:08:32 GMT-0500 (Central Daylight Time),NA,4,images/sunflower.png,daisy,This is a ,,2,38VTL6WC4A1TEWA6SUPSR4LGYXEY5T,3ATTHHXXWBCJDZD4KKRMLJE0LEMXIW,sunflower,yes,Please label the pictures below.,NA,28,NA,,images/daisy.png,flowers,some_college,A30VAYXB85107X,English,male,NA,flowers,NA,3,1564088912390,NA,1.50,These are both,sunflower,warmup
52,NA,Thu Jul 25 2019 16:08:32 GMT-0500 (Central Daylight Time),images/monkey-parade-small.png,4,NA,NA,That ,,2,38VTL6WC4A1TEWA6SUPSR4LGYXEY5T,3ATTHHXXWBCJDZD4KKRMLJE0LEMXIW,NA,yes,Another animal belongs to the group.,You say to your friend:,28,spider monkey,,NA,NA,some_college,A30VAYXB85107X,English,male,,NA,You see a group of animals.,1,1564088912390,images/spidermonkey.jpg,1.50, is small.,NA,main
52,NA,Thu Jul 25 2019 16:08:32 GMT-0500 (Central Daylight Time),images/flower-parade-small.png,4,NA,NA,That ,,2,38VTL6WC4A1TEWA6SUPSR4LGYXEY5T,3ATTHHXXWBCJDZD4KKRMLJE0LEMXIW,NA,yes,Another plant belongs to the group.,You say to your friend:,28,daisy,,NA,NA,some_college,A30VAYXB85107X,English,male,,NA,You see a group of plants.,2,1564088912390,images/daisy.png,1.50, is small.,NA,main
52,NA,Thu Jul 25 2019 16:08:32 GMT-0500 (Central Daylight Time),images/tree-parade.png,4,NA,NA,That ,,2,38VTL6WC4A1TEWA6SUPSR4LGYXEY5T,3ATTHHXXWBCJDZD4KKRMLJE0LEMXIW,NA,yes,Another plant belongs to the group.,You say to your friend:,28,redwood,,NA,NA,some_college,A30VAYXB85107X,English,male,,NA,You see a group of plants.,3,1564088912390,images/sequoia.jpg,1.50, is big.,NA,main
51,redwood,Thu Jul 25 2019 17:06:37 GMT-0400 (Eastern Daylight Time),NA,4,images/bonsai.jpg,redwood|sequoia,This is a ,No.,1,38VTL6WC4A1TEWA6SUPSR4LGYXEY5T,3F6KKYWMNCPXTUJEQ032WK7PRV4ND0,bonsai,,Please label the pictures below.,NA,,NA,,images/sequoia.jpg,trees,,A3V89EYQAC6K0C,English,,NA,trees,NA,1,1564088797377,NA,1.00,These are both,bonsai tree,warmup
51,redwood,Thu Jul 25 2019 17:06:37 GMT-0400 (Eastern Daylight Time),NA,4,images/bonsai.jpg,redwood|sequoia,This is a ,No.,1,38VTL6WC4A1TEWA6SUPSR4LGYXEY5T,3F6KKYWMNCPXTUJEQ032WK7PRV4ND0,bonsai,,Please label the pictures below.,NA,,NA,,images/sequoia.jpg,trees,,A3V89EYQAC6K0C,English,,NA,trees,NA,1,1564088797377,NA,1.00,These are both,bonsai,warmup
51,daisy,Thu Jul 25 2019 17:06:37 GMT-0400 (Eastern Daylight Time),NA,4,images/sunflower.png,daisy,This is a ,No.,1,38VTL6WC4A1TEWA6SUPSR4LGYXEY5T,3F6KKYWMNCPXTUJEQ032WK7PRV4ND0,sunflower,,Please label the pictures below.,NA,,NA,,images/daisy.png,flowers,,A3V89EYQAC6K0C,English,,NA,flowers,NA,2,1564088797377,NA,1.00,These are both,sunflower,warmup
51,swan,Thu Jul 25 2019 17:06:37 GMT-0400 (Eastern Daylight Time),NA,4,images/colibri.jpg,swan,This is a ,No.,1,38VTL6WC4A1TEWA6SUPSR4LGYXEY5T,3F6KKYWMNCPXTUJEQ032WK7PRV4ND0,hummingbird,,Please label the pictures below.,NA,,NA,,images/swan.jpg,birds,,A3V89EYQAC6K0C,English,,NA,birds,NA,3,1564088797377,NA,1.00,These are both,hummingbird,warmup
51,NA,Thu Jul 25 2019 17:06:37 GMT-0400 (Eastern Daylight Time),images/tree-parade.png,4,NA,NA,That's a small ,No.,1,38VTL6WC4A1TEWA6SUPSR4LGYXEY5T,3F6KKYWMNCPXTUJEQ032WK7PRV4ND0,NA,,Another plant belongs to the group.,You say to your friend:,,bonsai,,NA,NA,,A3V89EYQAC6K0C,English,,,NA,You see a group of plants.,1,1564088797377,images/bonsai.jpg,1.00,,NA,main
51,NA,Thu Jul 25 2019 17:06:37 GMT-0400 (Eastern Daylight Time),images/bird-parade.png,4,NA,NA,That's a big ,No.,1,38VTL6WC4A1TEWA6SUPSR4LGYXEY5T,3F6KKYWMNCPXTUJEQ032WK7PRV4ND0,NA,,Another animal belongs to the group.,You say to your friend:,,bird,,NA,NA,,A3V89EYQAC6K0C,English,,,NA,You see a group of animals.,2,1564088797377,images/swan.jpg,1.00,,NA,main
51,NA,Thu Jul 25 2019 17:06:37 GMT-0400 (Eastern Daylight Time),images/flower-parade.png,4,NA,NA,That's a big ,No.,1,38VTL6WC4A1TEWA6SUPSR4LGYXEY5T,3F6KKYWMNCPXTUJEQ032WK7PRV4ND0,NA,,Another plant belongs to the group.,You say to your friend:,,flower,,NA,NA,,A3V89EYQAC6K0C,English,,,NA,You see a group of plants.,3,1564088797377,images/sunflower.png,1.00,,NA,main
51,chihuahua,Thu Jul 25 2019 17:06:37 GMT-0400 (Eastern Daylight Time),NA,4,images/great-dane.jpg,chihuahua,This is a ,No.,1,38VTL6WC4A1TEWA6SUPSR4LGYXEY5T,3F6KKYWMNCPXTUJEQ032WK7PRV4ND0,great dane,,Please label the pictures below.,NA,,NA,,images/chihuahua.jpg,dogs,,A3V89EYQAC6K0C,English,,NA,dogs,NA,1,1564088797377,NA,1.00,These are both,mastiff,warmup
51,chihuahua,Thu Jul 25 2019 17:06:37 GMT-0400 (Eastern Daylight Time),NA,4,images/great-dane.jpg,chihuahua,This is a ,No.,1,38VTL6WC4A1TEWA6SUPSR4LGYXEY5T,3F6KKYWMNCPXTUJEQ032WK7PRV4ND0,great dane,,Please label the pictures below.,NA,,NA,,images/chihuahua.jpg,dogs,,A3V89EYQAC6K0C,English,,NA,dogs,NA,1,1564088797377,NA,1.00,These are both,great dane,warmup
51,swordfish,Thu Jul 25 2019 17:06:37 GMT-0400 (Eastern Daylight Time),NA,4,images/goldfish.png,swordfish,This is a ,No.,1,38VTL6WC4A1TEWA6SUPSR4LGYXEY5T,3F6KKYWMNCPXTUJEQ032WK7PRV4ND0,goldfish,,Please label the pictures below.,NA,,NA,,images/swordfish.jpg,fish,,A3V89EYQAC6K0C,English,,NA,fish,NA,2,1564088797377,NA,1.00,These are both,goldfish,warmup
51,monkey,Thu Jul 25 2019 17:06:37 GMT-0400 (Eastern Daylight Time),NA,4,images/gorilla.jpg,spider monkey,This is a ,No.,1,38VTL6WC4A1TEWA6SUPSR4LGYXEY5T,3F6KKYWMNCPXTUJEQ032WK7PRV4ND0,gorilla,,Please label the pictures below.,NA,,NA,,images/spidermonkey.jpg,monkeys,,A3V89EYQAC6K0C,English,,NA,monkeys|apes,NA,3,1564088797377,NA,1.00,These are both,gorilla,warmup
51,spider monkey,Thu Jul 25 2019 17:06:37 GMT-0400 (Eastern Daylight Time),NA,4,images/gorilla.jpg,spider monkey,This is a ,No.,1,38VTL6WC4A1TEWA6SUPSR4LGYXEY5T,3F6KKYWMNCPXTUJEQ032WK7PRV4ND0,gorilla,,Please label the pictures below.,NA,,NA,,images/spidermonkey.jpg,monkeys,,A3V89EYQAC6K0C,English,,NA,monkeys|apes,NA,3,1564088797377,NA,1.00,These are both,gorilla,warmup
51,NA,Thu Jul 25 2019 17:06:37 GMT-0400 (Eastern Daylight Time),images/fish-parade.png,4,NA,NA,That's a big ,No.,1,38VTL6WC4A1TEWA6SUPSR4LGYXEY5T,3F6KKYWMNCPXTUJEQ032WK7PRV4ND0,NA,,Another animal belongs to the group.,You say to your friend:,,fish,,NA,NA,,A3V89EYQAC6K0C,English,,,NA,You see a group of animals.,1,1564088797377,images/swordfish.jpg,1.00,,NA,main
51,NA,Thu Jul 25 2019 17:06:37 GMT-0400 (Eastern Daylight Time),images/dog_parade.png,4,NA,NA,That's a big ,No.,1,38VTL6WC4A1TEWA6SUPSR4LGYXEY5T,3F6KKYWMNCPXTUJEQ032WK7PRV4ND0,NA,,Another animal belongs to the group.,You say to your friend:,,dog,,NA,NA,,A3V89EYQAC6K0C,English,,,NA,You see a group of animals.,2,1564088797377,images/great-dane.jpg,1.00,,NA,main
51,NA,Thu Jul 25 2019 17:06:37 GMT-0400 (Eastern Daylight Time),images/monkey-parade-small.png,4,NA,NA,That's a small ,No.,1,38VTL6WC4A1TEWA6SUPSR4LGYXEY5T,3F6KKYWMNCPXTUJEQ032WK7PRV4ND0,NA,,Another animal belongs to the group.,You say to your friend:,,monkey,,NA,NA,,A3V89EYQAC6K0C,English,,,NA,You see a group of animals.,3,1564088797377,images/spidermonkey.jpg,1.00,,NA,main
50,Shark,Thu Jul 25 2019 15:57:50 GMT-0500 (Central Daylight Time),NA,4,images/goldfish.png,swordfish,This is a ,No problems or glitches.,2,3OYHVNTV5TMK21R7TUK0R26WHDAOKT,3J88R45B2HMBUL08XFH6UGFC7SLXPC,goldfish,yes,Please label the pictures below.,NA,20,NA,,images/swordfish.jpg,Aquatic life,some_college,A2LPP288NK76W4,"English, Spanish",male,NA,fish,NA,1,1564088270309,NA,1.6,These are both,Fish,warmup
50,swordfish,Thu Jul 25 2019 15:57:50 GMT-0500 (Central Daylight Time),NA,4,images/goldfish.png,swordfish,This is a ,No problems or glitches.,2,3OYHVNTV5TMK21R7TUK0R26WHDAOKT,3J88R45B2HMBUL08XFH6UGFC7SLXPC,goldfish,yes,Please label the pictures below.,NA,20,NA,,images/swordfish.jpg,fish,some_college,A2LPP288NK76W4,"English, Spanish",male,NA,fish,NA,1,1564088270309,NA,1.6,These are both,goldfish,warmup
50,goose,Thu Jul 25 2019 15:57:50 GMT-0500 (Central Daylight Time),NA,4,images/colibri.jpg,swan,This is a ,No problems or glitches.,2,3OYHVNTV5TMK21R7TUK0R26WHDAOKT,3J88R45B2HMBUL08XFH6UGFC7SLXPC,hummingbird,yes,Please label the pictures below.,NA,20,NA,,images/swan.jpg,birds,some_college,A2LPP288NK76W4,"English, Spanish",male,NA,birds,NA,2,1564088270309,NA,1.6,These are both,Hunmingbird,warmup
50,swan,Thu Jul 25 2019 15:57:50 GMT-0500 (Central Daylight Time),NA,4,images/colibri.jpg,swan,This is a ,No problems or glitches.,2,3OYHVNTV5TMK21R7TUK0R26WHDAOKT,3J88R45B2HMBUL08XFH6UGFC7SLXPC,hummingbird,yes,Please label the pictures below.,NA,20,NA,,images/swan.jpg,birds,some_college,A2LPP288NK76W4,"English, Spanish",male,NA,birds,NA,2,1564088270309,NA,1.6,These are both,hummingbird,warmup
50,Pine,Thu Jul 25 2019 15:57:50 GMT-0500 (Central Daylight Time),NA,4,images/bonsai.jpg,redwood|sequoia,This is a ,No problems or glitches.,2,3OYHVNTV5TMK21R7TUK0R26WHDAOKT,3J88R45B2HMBUL08XFH6UGFC7SLXPC,bonsai,yes,Please label the pictures below.,NA,20,NA,,images/sequoia.jpg,trees,some_college,A2LPP288NK76W4,"English, Spanish",male,NA,trees,NA,3,1564088270309,NA,1.6,These are both,Bush,warmup
50,redwood,Thu Jul 25 2019 15:57:50 GMT-0500 (Central Daylight Time),NA,4,images/bonsai.jpg,redwood|sequoia,This is a ,No problems or glitches.,2,3OYHVNTV5TMK21R7TUK0R26WHDAOKT,3J88R45B2HMBUL08XFH6UGFC7SLXPC,bonsai,yes,Please label the pictures below.,NA,20,NA,,images/sequoia.jpg,trees,some_college,A2LPP288NK76W4,"English, Spanish",male,NA,trees,NA,3,1564088270309,NA,1.6,These are both,bonsai,warmup
50,NA,Thu Jul 25 2019 15:57:50 GMT-0500 (Central Daylight Time),images/tree-parade.png,4,NA,NA,That ,No problems or glitches.,2,3OYHVNTV5TMK21R7TUK0R26WHDAOKT,3J88R45B2HMBUL08XFH6UGFC7SLXPC,NA,yes,Another plant belongs to the group.,You say to your friend:,20,tree,,NA,NA,some_college,A2LPP288NK76W4,"English, Spanish",male,,NA,You see a group of plants.,1,1564088270309,images/sequoia.jpg,1.6, is big.,NA,main
50,NA,Thu Jul 25 2019 15:57:50 GMT-0500 (Central Daylight Time),images/bird-parade-small.png,4,NA,NA,That ,No problems or glitches.,2,3OYHVNTV5TMK21R7TUK0R26WHDAOKT,3J88R45B2HMBUL08XFH6UGFC7SLXPC,NA,yes,Another animal bleongs to the group.,You say to your friend:,20,bird,,NA,NA,some_college,A2LPP288NK76W4,"English, Spanish",male,,NA,You see a group of animals.,2,1564088270309,images/colibri.jpg,1.6, is small.,NA,main
