submission_id,response1,context_picture,experiment_id,picture2,correct1,question1,problems,enjoyment,item,botresponse,correct2,understand,text,condition,sentence,age,response,comments,picture1,response3,education,languages,sex,RT,correct3,context,trial_number,startTime,attempts,picture,question3,fairprice,question2,size,response2,trial_name
341,swordfish,NA,8,warmup/goldfish.png,swordfish,This is a,no,1,fish,susan,goldfish,yes,Please label the pictures below.,NA,NA,65,NA,NA,warmup/swordfish.jpg,fish,graduated_college,English,female,NA,fish,NA,1,1566417305133,1,NA,This is a,1,These are both,NA,goldfish,warmup1
341,tall tree,NA,8,warmup/bonsai.jpg,redwood|sequoia,This is a,no,1,trees,susan,bonsai,yes,Please label the pictures below.,NA,NA,65,NA,NA,warmup/sequoia.jpg,trees,graduated_college,English,female,NA,trees,NA,2,1566417305133,1,NA,This is a,1,These are both,NA,bonsai,warmup1
341,cedar,NA,8,warmup/bonsai.jpg,redwood|sequoia,This is a,no,1,trees,susan,bonsai,yes,Please label the pictures below.,NA,NA,65,NA,NA,warmup/sequoia.jpg,trees,graduated_college,English,female,NA,trees,NA,2,1566417305133,2,NA,This is a,1,These are both,NA,bonsai,warmup1
341,pine,NA,8,warmup/bonsai.jpg,redwood|sequoia,This is a,no,1,trees,susan,bonsai,yes,Please label the pictures below.,NA,NA,65,NA,NA,warmup/sequoia.jpg,trees,graduated_college,English,female,NA,trees,NA,2,1566417305133,3,NA,This is a,1,These are both,NA,bonsai,warmup1
341,tree,NA,8,warmup/bonsai.jpg,redwood|sequoia,This is a,no,1,trees,susan,bonsai,yes,Please label the pictures below.,NA,NA,65,NA,NA,warmup/sequoia.jpg,trees,graduated_college,English,female,NA,trees,NA,2,1566417305133,4,NA,This is a,1,These are both,NA,bonsai,warmup1
341,tree,NA,8,warmup/bonsai.jpg,redwood|sequoia,This is a,no,1,trees,susan,bonsai,yes,Please label the pictures below.,NA,NA,65,NA,NA,warmup/sequoia.jpg,evergreens,graduated_college,English,female,NA,trees,NA,2,1566417305133,5,NA,This is a,1,These are both,NA,bonsai,warmup1
341,tree,NA,8,warmup/bonsai.jpg,redwood|sequoia,This is a,no,1,trees,susan,bonsai,yes,Please label the pictures below.,NA,NA,65,NA,NA,warmup/sequoia.jpg,trees,graduated_college,English,female,NA,trees,NA,2,1566417305133,6,NA,This is a,1,These are both,NA,bonsai,warmup1
341,tree,NA,8,warmup/bonsai.jpg,redwood|sequoia,This is a,no,1,trees,susan,bonsai,yes,Please label the pictures below.,NA,NA,65,NA,NA,warmup/sequoia.jpg,trees,graduated_college,English,female,NA,trees,NA,2,1566417305133,7,NA,This is a,1,These are both,NA,bonsai,warmup1
341,tree,NA,8,warmup/bonsai.jpg,redwood|sequoia,This is a,no,1,trees,susan,bonsai,yes,Please label the pictures below.,NA,NA,65,NA,NA,warmup/sequoia.jpg,trees,graduated_college,English,female,NA,trees,NA,2,1566417305133,8,NA,This is a,1,These are both,NA,tree,warmup1
341,redwood,NA,8,warmup/bonsai.jpg,redwood|sequoia,This is a,no,1,trees,susan,bonsai,yes,Please label the pictures below.,NA,NA,65,NA,NA,warmup/sequoia.jpg,trees,graduated_college,English,female,NA,trees,NA,2,1566417305133,9,NA,This is a,1,These are both,NA,bonsai,warmup1
341,swan,NA,8,warmup/canary.jpg,swan,This is a,no,1,birds,susan,canary,yes,Please label the pictures below.,NA,NA,65,NA,NA,warmup/swan.jpg,birds,graduated_college,English,female,NA,birds,NA,3,1566417305133,1,NA,This is a,1,These are both,NA,finch,warmup1
341,swan,NA,8,warmup/canary.jpg,swan,This is a,no,1,birds,susan,canary,yes,Please label the pictures below.,NA,NA,65,NA,NA,warmup/swan.jpg,birds,graduated_college,English,female,NA,birds,NA,3,1566417305133,2,NA,This is a,1,These are both,NA,canary,warmup1
341,NA,images/bird-parade3.png,8,NA,NA,That,no,1,birds,susan,NA,yes,This one is also in the parade.,predicative,You say to your friend:,65,bird,NA,NA,NA,graduated_college,English,female,NA,NA,You see a parade of animals.,1,1566417305133,NA,images/canary.png,NA,1,is small.,small,NA,main1
341,NA,images/tree-parade.png,8,NA,NA,That,no,1,trees,susan,NA,yes,This one is also in the landscape.,predicative,You say to your friend:,65,redwood,NA,NA,NA,graduated_college,English,female,NA,NA,You see the following items in a landscape.,2,1566417305133,NA,images/sequoia.png,NA,1,is big.,big,NA,main1
341,NA,images/fish-parade.png,8,NA,NA,That,no,1,fish,susan,NA,yes,This one is also in the parade.,predicative,You say to your friend:,65,goldfish,NA,NA,NA,graduated_college,English,female,NA,NA,You see a parade of animals.,3,1566417305133,NA,images/goldfish.png,NA,1,is small.,small,NA,main1
341,bulldog,NA,8,warmup/great-dane.jpg,pug,This is a,no,1,dogs,susan,great dane,yes,Please label the pictures below.,NA,NA,65,NA,NA,warmup/pug.jpg,dogs,graduated_college,English,female,NA,dogs,NA,1,1566417305133,1,NA,This is a,1,These are both,NA,great dane,warmup2
341,pug,NA,8,warmup/great-dane.jpg,pug,This is a,no,1,dogs,susan,great dane,yes,Please label the pictures below.,NA,NA,65,NA,NA,warmup/pug.jpg,dogs,graduated_college,English,female,NA,dogs,NA,1,1566417305133,2,NA,This is a,1,These are both,NA,great dane,warmup2
341,hummingbird,NA,8,warmup/eagle.jpg,hummingbird,This is a,no,1,birds,susan,eagle,yes,Please label the pictures below.,NA,NA,65,NA,NA,warmup/colibri.jpg,birds,graduated_college,English,female,NA,birds,NA,2,1566417305133,1,NA,This is an,1,These are both,NA,eagle,warmup2
341,grouper,NA,8,warmup/clownfish.jpg,tuna,This is a,no,1,fish,susan,clownfish,yes,Please label the pictures below.,NA,NA,65,NA,NA,warmup/tuna.jpg,fish,graduated_college,English,female,NA,fish,NA,3,1566417305133,1,NA,This is a,1,These are both,NA,tigerfish,warmup2
341,tuna,NA,8,warmup/clownfish.jpg,tuna,This is a,no,1,fish,susan,clownfish,yes,Please label the pictures below.,NA,NA,65,NA,NA,warmup/tuna.jpg,fish,graduated_college,English,female,NA,fish,NA,3,1566417305133,2,NA,This is a,1,These are both,NA,clownfish,warmup2
341,NA,images/bird-parade2.png,8,NA,NA,That,no,1,birds,susan,NA,yes,This one is also in the parade.,predicative,You say to your friend:,65,eagle,NA,NA,NA,graduated_college,English,female,NA,NA,You see a parade of animals.,1,1566417305133,NA,images/eagle.png,NA,1,is big.,big,NA,main2
341,NA,images/fish-parade2.png,8,NA,NA,That,no,1,fish,susan,NA,yes,This one is also in the parade.,predicative,You say to your friend:,65,clownfish,NA,NA,NA,graduated_college,English,female,NA,NA,You see a parade of animals.,2,1566417305133,NA,images/clownfish.png,NA,1,is small.,small,NA,main2
341,NA,images/dog-parade2.png,8,NA,NA,That,no,1,dogs,susan,NA,yes,This one is also in the parade.,predicative,You say to your friend:,65,great dane,NA,NA,NA,graduated_college,English,female,NA,NA,You see a parade of animals.,3,1566417305133,NA,images/great-dane.png,NA,1,is big.,big,NA,main2
338,tulip,NA,8,warmup/sunflower.png,dandelion,This is a,none,1,flowers,jessica,sunflower,yes,Please label the pictures below.,NA,NA,32,NA,none,warmup/dandelion.jpg,flowers,some_college,English,male,NA,flowers,NA,1,1566416250664,1,NA,This is a,1.25,These are both,NA,daisy,warmup1
338,dandelion,NA,8,warmup/sunflower.png,dandelion,This is a,none,1,flowers,jessica,sunflower,yes,Please label the pictures below.,NA,NA,32,NA,none,warmup/dandelion.jpg,flowers,some_college,English,male,NA,flowers,NA,1,1566416250664,2,NA,This is a,1.25,These are both,NA,sunflower,warmup1
338,tulip,NA,8,warmup/peony.png,daisy,This is a,none,1,flowers,jessica,peony,yes,Please label the pictures below.,NA,NA,32,NA,none,warmup/daisy.png,flowers,some_college,English,male,NA,flowers,NA,2,1566416250664,1,NA,This is a,1.25,These are both,NA,rose,warmup1
338,daisy,NA,8,warmup/peony.png,daisy,This is a,none,1,flowers,jessica,peony,yes,Please label the pictures below.,NA,NA,32,NA,none,warmup/daisy.png,flowers,some_college,English,male,NA,flowers,NA,2,1566416250664,2,NA,This is a,1.25,These are both,NA,peony,warmup1
338,trout,NA,8,warmup/clownfish.jpg,tuna,This is a,none,1,fish,jessica,clownfish,yes,Please label the pictures below.,NA,NA,32,NA,none,warmup/tuna.jpg,fish,some_college,English,male,NA,fish,NA,3,1566416250664,1,NA,This is a,1.25,These are both,NA,goldfish,warmup1
338,tuna,NA,8,warmup/clownfish.jpg,tuna,This is a,none,1,fish,jessica,clownfish,yes,Please label the pictures below.,NA,NA,32,NA,none,warmup/tuna.jpg,fish,some_college,English,male,NA,fish,NA,3,1566416250664,2,NA,This is a,1.25,These are both,NA,clownfish,warmup1
338,NA,images/flower-parade.png,8,NA,NA,That,none,1,flowers,jessica,NA,yes,This one is also in the collection.,predicative,You say to your friend:,32,flower,none,NA,NA,some_college,English,male,NA,NA,You see a collection of plants.,1,1566416250664,NA,images/peony.png,NA,1.25,is big.,big,NA,main1
338,NA,images/fish-parade2.png,8,NA,NA,That,none,1,fish,jessica,NA,yes,This one is also in the parade.,predicative,You say to your friend:,32,tuna,none,NA,NA,some_college,English,male,NA,NA,You see a parade of animals.,2,1566416250664,NA,images/tuna.png,NA,1.25,is big.,big,NA,main1
338,NA,images/flower-parade2.png,8,NA,NA,That,none,1,flowers,jessica,NA,yes,This one is also in the collection.,predicative,You say to your friend:,32,sunflower,none,NA,NA,some_college,English,male,NA,NA,You see a collection of plants.,3,1566416250664,NA,images/sunflower.png,NA,1.25,is big.,big,NA,main1
338,goose,NA,8,warmup/sparrow.jpg,goose,This is a,none,1,birds,jessica,sparrow,yes,Please label the pictures below.,NA,NA,32,NA,none,warmup/goose.png,birds,some_college,English,male,NA,birds,NA,1,1566416250664,1,NA,This is a,1.25,These are both,NA,hummingbird,warmup2
338,goose,NA,8,warmup/sparrow.jpg,goose,This is a,none,1,birds,jessica,sparrow,yes,Please label the pictures below.,NA,NA,32,NA,none,warmup/goose.png,birds,some_college,English,male,NA,birds,NA,1,1566416250664,2,NA,This is a,1.25,These are both,NA,sparrow,warmup2
338,redwood,NA,8,warmup/bonsai.jpg,redwood|sequoia,This is a,none,1,trees,jessica,bonsai,yes,Please label the pictures below.,NA,NA,32,NA,none,warmup/sequoia.jpg,trees,some_college,English,male,NA,trees,NA,2,1566416250664,1,NA,This is a,1.25,These are both,NA,bonsai,warmup2
338,pug,NA,8,warmup/great-dane.jpg,pug,This is a,none,1,dogs,jessica,great dane,yes,Please label the pictures below.,NA,NA,32,NA,none,warmup/pug.jpg,dogs,some_college,English,male,NA,dogs,NA,3,1566416250664,1,NA,This is a,1.25,These are both,NA,labador,warmup2
338,pug,NA,8,warmup/great-dane.jpg,pug,This is a,none,1,dogs,jessica,great dane,yes,Please label the pictures below.,NA,NA,32,NA,none,warmup/pug.jpg,dogs,some_college,English,male,NA,dogs,NA,3,1566416250664,2,NA,This is a,1.25,These are both,NA,great dane,warmup2
338,NA,images/tree-parade.png,8,NA,NA,That,none,1,trees,jessica,NA,yes,This one is also in the landscape.,predicative,You say to your friend:,32,tree,none,NA,NA,some_college,English,male,NA,NA,You see the following items in a landscape.,1,1566416250664,NA,images/bonsai.png,NA,1.25,is small.,small,NA,main2
338,NA,images/dog-parade2.png,8,NA,NA,That,none,1,dogs,jessica,NA,yes,This one is also in the parade.,predicative,You say to your friend:,32,dog,none,NA,NA,some_college,English,male,NA,NA,You see a parade of animals.,2,1566416250664,NA,images/pug.png,NA,1.25,is small.,small,NA,main2
338,NA,images/bird-parade.png,8,NA,NA,That,none,1,birds,jessica,NA,yes,This one is also in the parade.,predicative,You say to your friend:,32,bird,none,NA,NA,some_college,English,male,NA,NA,You see a parade of animals.,3,1566416250664,NA,images/sparrow.png,NA,1.25,is small.,small,NA,main2
337,tree,NA,8,warmup/bonsai.jpg,redwood|sequoia,This is a,no,1,trees,margaret,bonsai,yes,Please label the pictures below.,NA,NA,22,NA,NA,warmup/sequoia.jpg,trees,graduated_college,english,male,NA,trees,NA,1,1566415963741,1,NA,This is a,1.5,These are both,NA,tree,warmup1
337,redwood,NA,8,warmup/bonsai.jpg,redwood|sequoia,This is a,no,1,trees,margaret,bonsai,yes,Please label the pictures below.,NA,NA,22,NA,NA,warmup/sequoia.jpg,trees,graduated_college,english,male,NA,trees,NA,1,1566415963741,2,NA,This is a,1.5,These are both,NA,bonsai,warmup1
337,tuna,NA,8,warmup/clownfish.jpg,tuna,This is a,no,1,fish,margaret,clownfish,yes,Please label the pictures below.,NA,NA,22,NA,NA,warmup/tuna.jpg,fish,graduated_college,english,male,NA,fish,NA,2,1566415963741,1,NA,This is a,1.5,These are both,NA,clown fish,warmup1
337,tuna,NA,8,warmup/clownfish.jpg,tuna,This is a,no,1,fish,margaret,clownfish,yes,Please label the pictures below.,NA,NA,22,NA,NA,warmup/tuna.jpg,fish,graduated_college,english,male,NA,fish,NA,2,1566415963741,2,NA,This is a,1.5,These are both,NA,clownfish,warmup1
337,marlin,NA,8,warmup/goldfish.png,swordfish,This is a,no,1,fish,margaret,goldfish,yes,Please label the pictures below.,NA,NA,22,NA,NA,warmup/swordfish.jpg,fish,graduated_college,english,male,NA,fish,NA,3,1566415963741,1,NA,This is a,1.5,These are both,NA,goldfish,warmup1
337,swordfish,NA,8,warmup/goldfish.png,swordfish,This is a,no,1,fish,margaret,goldfish,yes,Please label the pictures below.,NA,NA,22,NA,NA,warmup/swordfish.jpg,fish,graduated_college,english,male,NA,fish,NA,3,1566415963741,2,NA,This is a,1.5,These are both,NA,goldfish,warmup1
337,NA,images/fish-parade2.png,8,NA,NA,That,no,1,fish,margaret,NA,yes,This one is also in the parade.,predicative,You say to your friend:,22,fish,NA,NA,NA,graduated_college,english,male,NA,NA,You see a parade of animals.,1,1566415963741,NA,images/clownfish.png,NA,1.5,is small.,small,NA,main1
337,NA,images/tree-parade.png,8,NA,NA,That,no,1,trees,margaret,NA,yes,This one is also in the landscape.,predicative,You say to your friend:,22,redwood,NA,NA,NA,graduated_college,english,male,NA,NA,You see the following items in a landscape.,2,1566415963741,NA,images/sequoia.png,NA,1.5,is big.,big,NA,main1
337,NA,images/fish-parade.png,8,NA,NA,That,no,1,fish,margaret,NA,yes,This one is also in the parade.,predicative,You say to your friend:,22,goldfish,NA,NA,NA,graduated_college,english,male,NA,NA,You see a parade of animals.,3,1566415963741,NA,images/goldfish.png,NA,1.5,is small.,small,NA,main1
337,dandelion,NA,8,warmup/peony.png,daisy,This is a,no,1,flowers,margaret,peony,yes,Please label the pictures below.,NA,NA,22,NA,NA,warmup/daisy.png,flowers,graduated_college,english,male,NA,flowers,NA,1,1566415963741,1,NA,This is a,1.5,These are both,NA,rose,warmup2
337,daisy,NA,8,warmup/peony.png,daisy,This is a,no,1,flowers,margaret,peony,yes,Please label the pictures below.,NA,NA,22,NA,NA,warmup/daisy.png,flowers,graduated_college,english,male,NA,flowers,NA,1,1566415963741,2,NA,This is a,1.5,These are both,NA,peony,warmup2
337,hummingbird,NA,8,warmup/eagle.jpg,hummingbird,This is a,no,1,birds,margaret,eagle,yes,Please label the pictures below.,NA,NA,22,NA,NA,warmup/colibri.jpg,birds,graduated_college,english,male,NA,birds,NA,2,1566415963741,1,NA,This is an,1.5,These are both,NA,eagle,warmup2
337,dandelion,NA,8,warmup/sunflower.png,dandelion,This is a,no,1,flowers,margaret,sunflower,yes,Please label the pictures below.,NA,NA,22,NA,NA,warmup/dandelion.jpg,flowers,graduated_college,english,male,NA,flowers,NA,3,1566415963741,1,NA,This is a,1.5,These are both,NA,sunflower,warmup2
337,NA,images/flower-parade2.png,8,NA,NA,That,no,1,flowers,margaret,NA,yes,This one is also in the collection.,predicative,You say to your friend:,22,dandelion,NA,NA,NA,graduated_college,english,male,NA,NA,You see a collection of plants.,1,1566415963741,NA,images/dandelion.png,NA,1.5,is small.,small,NA,main2
337,NA,images/bird-parade2.png,8,NA,NA,That,no,1,birds,margaret,NA,yes,This one is also in the parade.,predicative,You say to your friend:,22,eagle,NA,NA,NA,graduated_college,english,male,NA,NA,You see a parade of animals.,2,1566415963741,NA,images/eagle.png,NA,1.5,is big.,big,NA,main2
337,NA,images/flower-parade.png,8,NA,NA,That,no,1,flowers,margaret,NA,yes,This one is also in the collection.,predicative,You say to your friend:,22,rose,NA,NA,NA,graduated_college,english,male,NA,NA,You see a collection of plants.,3,1566415963741,NA,images/peony.png,NA,1.5,is big.,big,NA,main2
334,daisy,NA,8,warmup/sunflower.png,dandelion,This is a,No.,2,flowers,Linda,sunflower,yes,Please label the pictures below.,NA,NA,33,NA,Thank you.,warmup/dandelion.jpg,flowers,graduated_high_school,English,other,NA,flowers,NA,1,1566415981835,1,NA,This is a,1,These are both,NA,sunflower,warmup1
334,dandelion,NA,8,warmup/sunflower.png,dandelion,This is a,No.,2,flowers,Linda,sunflower,yes,Please label the pictures below.,NA,NA,33,NA,Thank you.,warmup/dandelion.jpg,flowers,graduated_high_school,English,other,NA,flowers,NA,1,1566415981835,2,NA,This is a,1,These are both,NA,sunflower,warmup1
334,daisy,NA,8,warmup/peony.png,daisy,This is a,No.,2,flowers,Linda,peony,yes,Please label the pictures below.,NA,NA,33,NA,Thank you.,warmup/daisy.png,flowers,graduated_high_school,English,other,NA,flowers,NA,2,1566415981835,1,NA,This is a,1,These are both,NA,rose,warmup1
334,daisy,NA,8,warmup/peony.png,daisy,This is a,No.,2,flowers,Linda,peony,yes,Please label the pictures below.,NA,NA,33,NA,Thank you.,warmup/daisy.png,flowers,graduated_high_school,English,other,NA,flowers,NA,2,1566415981835,2,NA,This is a,1,These are both,NA,peony,warmup1
334,pug,NA,8,warmup/great-dane.jpg,pug,This is a,No.,2,dogs,Linda,great dane,yes,Please label the pictures below.,NA,NA,33,NA,Thank you.,warmup/pug.jpg,dogs,graduated_high_school,English,other,NA,dogs,NA,3,1566415981835,1,NA,This is a,1,These are both,NA,terrier,warmup1
334,pug,NA,8,warmup/great-dane.jpg,pug,This is a,No.,2,dogs,Linda,great dane,yes,Please label the pictures below.,NA,NA,33,NA,Thank you.,warmup/pug.jpg,dogs,graduated_high_school,English,other,NA,dogs,NA,3,1566415981835,2,NA,This is a,1,These are both,NA,great dane,warmup1
334,NA,images/dog-parade2.png,8,NA,NA,That,No.,2,dogs,Linda,NA,yes,This one is also in the parade.,predicative,You say to your friend:,33,pug,Thank you.,NA,NA,graduated_high_school,English,other,NA,NA,You see a parade of animals.,1,1566415981835,NA,images/pug.png,NA,1,is small.,small,NA,main1
334,NA,images/flower-parade.png,8,NA,NA,That,No.,2,flowers,Linda,NA,yes,This one is also in the collection.,predicative,You say to your friend:,33,peondy,Thank you.,NA,NA,graduated_high_school,English,other,NA,NA,You see a collection of plants.,2,1566415981835,NA,images/peony.png,NA,1,is big.,big,NA,main1
334,NA,images/flower-parade2.png,8,NA,NA,That,No.,2,flowers,Linda,NA,yes,This one is also in the collection.,predicative,You say to your friend:,33,sunflower,Thank you.,NA,NA,graduated_high_school,English,other,NA,NA,You see a collection of plants.,3,1566415981835,NA,images/sunflower.png,NA,1,is big.,big,NA,main1
334,tuna,NA,8,warmup/clownfish.jpg,tuna,This is a,No.,2,fish,Linda,clownfish,yes,Please label the pictures below.,NA,NA,33,NA,Thank you.,warmup/tuna.jpg,fish,graduated_high_school,English,other,NA,fish,NA,1,1566415981835,1,NA,This is a,1,These are both,NA,clownfish,warmup2
334,goose,NA,8,warmup/sparrow.jpg,goose,This is a,No.,2,birds,Linda,sparrow,yes,Please label the pictures below.,NA,NA,33,NA,Thank you.,warmup/goose.png,birds,graduated_high_school,English,other,NA,birds,NA,2,1566415981835,1,NA,This is a,1,These are both,NA,pigeon,warmup2
334,goose,NA,8,warmup/sparrow.jpg,goose,This is a,No.,2,birds,Linda,sparrow,yes,Please label the pictures below.,NA,NA,33,NA,Thank you.,warmup/goose.png,birds,graduated_high_school,English,other,NA,birds,NA,2,1566415981835,2,NA,This is a,1,These are both,NA,sparrow,warmup2
334,swordfish,NA,8,warmup/goldfish.png,swordfish,This is a,No.,2,fish,Linda,goldfish,yes,Please label the pictures below.,NA,NA,33,NA,Thank you.,warmup/swordfish.jpg,fish,graduated_high_school,English,other,NA,fish,NA,3,1566415981835,1,NA,This is a,1,These are both,NA,goldfish,warmup2
334,NA,images/bird-parade.png,8,NA,NA,That,No.,2,birds,Linda,NA,yes,This one is also in the parade.,predicative,You say to your friend:,33,goose,Thank you.,NA,NA,graduated_high_school,English,other,NA,NA,You see a parade of animals.,1,1566415981835,NA,images/goose.png,NA,1,is big.,big,NA,main2
334,NA,images/fish-parade2.png,8,NA,NA,That,No.,2,fish,Linda,NA,yes,This one is also in the parade.,predicative,You say to your friend:,33,clownfish,Thank you.,NA,NA,graduated_high_school,English,other,NA,NA,You see a parade of animals.,2,1566415981835,NA,images/clownfish.png,NA,1,is small.,small,NA,main2
334,NA,images/fish-parade.png,8,NA,NA,That,No.,2,fish,Linda,NA,yes,This one is also in the parade.,predicative,You say to your friend:,33,goldfish,Thank you.,NA,NA,graduated_high_school,English,other,NA,NA,You see a parade of animals.,3,1566415981835,NA,images/goldfish.png,NA,1,is small.,small,NA,main2
330,goose,NA,8,warmup/sparrow.jpg,goose,This is a,no,1,birds,Linda,sparrow,yes,Please label the pictures below.,NA,NA,33,NA,NA,warmup/goose.png,birds,graduated_college,English,male,NA,birds,NA,1,1566415682955,1,NA,This is a,1,These are both,NA,finch,warmup1
330,goose,NA,8,warmup/sparrow.jpg,goose,This is a,no,1,birds,Linda,sparrow,yes,Please label the pictures below.,NA,NA,33,NA,NA,warmup/goose.png,birds,graduated_college,English,male,NA,birds,NA,1,1566415682955,2,NA,This is a,1,These are both,NA,sparrow,warmup1
330,chihuahua,NA,8,warmup/doberman.png,chihuahua,This is a,no,1,dogs,Linda,doberman,yes,Please label the pictures below.,NA,NA,33,NA,NA,warmup/chihuahua.jpg,dogs,graduated_college,English,male,NA,dogs,NA,2,1566415682955,1,NA,This is a,1,These are both,NA,pointer,warmup1
330,chihuahua,NA,8,warmup/doberman.png,chihuahua,This is a,no,1,dogs,Linda,doberman,yes,Please label the pictures below.,NA,NA,33,NA,NA,warmup/chihuahua.jpg,dogs,graduated_college,English,male,NA,dogs,NA,2,1566415682955,2,NA,This is a,1,These are both,NA,doberman,warmup1
330,bulldog,NA,8,warmup/great-dane.jpg,pug,This is a,no,1,dogs,Linda,great dane,yes,Please label the pictures below.,NA,NA,33,NA,NA,warmup/pug.jpg,dogs,graduated_college,English,male,NA,dogs,NA,3,1566415682955,1,NA,This is a,1,These are both,NA,lab,warmup1
330,pug,NA,8,warmup/great-dane.jpg,pug,This is a,no,1,dogs,Linda,great dane,yes,Please label the pictures below.,NA,NA,33,NA,NA,warmup/pug.jpg,dogs,graduated_college,English,male,NA,dogs,NA,3,1566415682955,2,NA,This is a,1,These are both,NA,great dane,warmup1
330,NA,images/dog-parade2.png,8,NA,NA,That,no,1,dogs,Linda,NA,yes,This one is also in the parade.,predicative,You say to your friend:,33,dog,NA,NA,NA,graduated_college,English,male,NA,NA,You see a parade of animals.,1,1566415682955,NA,images/pug.png,NA,1,is small.,small,NA,main1
330,NA,images/dog-parade.png,8,NA,NA,That,no,1,dogs,Linda,NA,yes,This one is also in the parade.,predicative,You say to your friend:,33,chihuahua,NA,NA,NA,graduated_college,English,male,NA,NA,You see a parade of animals.,2,1566415682955,NA,images/chihuahua.png,NA,1,is small.,small,NA,main1
330,NA,images/bird-parade.png,8,NA,NA,That,no,1,birds,Linda,NA,yes,This one is also in the parade.,predicative,You say to your friend:,33,bird,NA,NA,NA,graduated_college,English,male,NA,NA,You see a parade of animals.,3,1566415682955,NA,images/sparrow.png,NA,1,is small.,small,NA,main1
330,hummingbird,NA,8,warmup/eagle.jpg,hummingbird,This is a,no,1,birds,Linda,eagle,yes,Please label the pictures below.,NA,NA,33,NA,NA,warmup/colibri.jpg,birds,graduated_college,English,male,NA,birds,NA,1,1566415682955,1,NA,This is an,1,These are both,NA,eagle,warmup2
330,tulip,NA,8,warmup/peony.png,daisy,This is a,no,1,flowers,Linda,peony,yes,Please label the pictures below.,NA,NA,33,NA,NA,warmup/daisy.png,flowers,graduated_college,English,male,NA,flowers,NA,2,1566415682955,1,NA,This is a,1,These are both,NA,rose,warmup2
330,daisy,NA,8,warmup/peony.png,daisy,This is a,no,1,flowers,Linda,peony,yes,Please label the pictures below.,NA,NA,33,NA,NA,warmup/daisy.png,flowers,graduated_college,English,male,NA,flowers,NA,2,1566415682955,2,NA,This is a,1,These are both,NA,peony,warmup2
330,swordfish,NA,8,warmup/goldfish.png,swordfish,This is a,no,1,fish,Linda,goldfish,yes,Please label the pictures below.,NA,NA,33,NA,NA,warmup/swordfish.jpg,fish,graduated_college,English,male,NA,fish,NA,3,1566415682955,1,NA,This is a,1,These are both,NA,goldfish,warmup2
330,NA,images/bird-parade2.png,8,NA,NA,That,no,1,birds,Linda,NA,yes,This one is also in the parade.,predicative,You say to your friend:,33,eagle,NA,NA,NA,graduated_college,English,male,NA,NA,You see a parade of animals.,1,1566415682955,NA,images/eagle.png,NA,1,is big.,big,NA,main2
330,NA,images/flower-parade.png,8,NA,NA,That,no,1,flowers,Linda,NA,yes,This one is also in the collection.,predicative,You say to your friend:,33,flower,NA,NA,NA,graduated_college,English,male,NA,NA,You see a collection of plants.,2,1566415682955,NA,images/peony.png,NA,1,is big.,big,NA,main2
330,NA,images/fish-parade.png,8,NA,NA,That,no,1,fish,Linda,NA,yes,This one is also in the parade.,predicative,You say to your friend:,33,swordfish,NA,NA,NA,graduated_college,English,male,NA,NA,You see a parade of animals.,3,1566415682955,NA,images/swordfish.png,NA,1,is big.,big,NA,main2
328,flower,NA,8,warmup/sunflower.png,dandelion,This is a,No,2,flowers,barbara,sunflower,yes,Please label the pictures below.,NA,NA,22,NA,NA,warmup/dandelion.jpg,flowers,graduated_high_school,English,male,NA,flowers,NA,1,1566415572163,1,NA,This is a,1,These are both,NA,sunflower,warmup1
328,dandelion,NA,8,warmup/sunflower.png,dandelion,This is a,No,2,flowers,barbara,sunflower,yes,Please label the pictures below.,NA,NA,22,NA,NA,warmup/dandelion.jpg,flowers,graduated_high_school,English,male,NA,flowers,NA,1,1566415572163,2,NA,This is a,1,These are both,NA,sunflower,warmup1
328,goose,NA,8,warmup/sparrow.jpg,goose,This is a,No,2,birds,barbara,sparrow,yes,Please label the pictures below.,NA,NA,22,NA,NA,warmup/goose.png,birds,graduated_high_school,English,male,NA,birds,NA,2,1566415572163,1,NA,This is a,1,These are both,NA,bird,warmup1
328,goose,NA,8,warmup/sparrow.jpg,goose,This is a,No,2,birds,barbara,sparrow,yes,Please label the pictures below.,NA,NA,22,NA,NA,warmup/goose.png,birds,graduated_high_school,English,male,NA,birds,NA,2,1566415572163,2,NA,This is a,1,These are both,NA,sparrow,warmup1
328,swan,NA,8,warmup/canary.jpg,swan,This is a,No,2,birds,barbara,canary,yes,Please label the pictures below.,NA,NA,22,NA,NA,warmup/swan.jpg,birds,graduated_high_school,English,male,NA,birds,NA,3,1566415572163,1,NA,This is a,1,These are both,NA,songbird,warmup1
328,swan,NA,8,warmup/canary.jpg,swan,This is a,No,2,birds,barbara,canary,yes,Please label the pictures below.,NA,NA,22,NA,NA,warmup/swan.jpg,birds,graduated_high_school,English,male,NA,birds,NA,3,1566415572163,2,NA,This is a,1,These are both,NA,canary,warmup1
328,NA,images/bird-parade.png,8,NA,NA,That,No,2,birds,barbara,NA,yes,This one is also in the parade.,predicative,You say to your friend:,22,sparrow,NA,NA,NA,graduated_high_school,English,male,NA,NA,You see a parade of animals.,1,1566415572163,NA,images/sparrow.png,NA,1,is small.,small,NA,main1
328,NA,images/flower-parade2.png,8,NA,NA,That,No,2,flowers,barbara,NA,yes,This one is also in the collection.,predicative,You say to your friend:,22,sunflower,NA,NA,NA,graduated_high_school,English,male,NA,NA,You see a collection of plants.,2,1566415572163,NA,images/sunflower.png,NA,1,is big.,big,NA,main1
328,NA,images/bird-parade3.png,8,NA,NA,That,No,2,birds,barbara,NA,yes,This one is also in the parade.,predicative,You say to your friend:,22,swan,NA,NA,NA,graduated_high_school,English,male,NA,NA,You see a parade of animals.,3,1566415572163,NA,images/swan.png,NA,1,is big.,big,NA,main1
328,hummingbird,NA,8,warmup/eagle.jpg,hummingbird,This is a,No,2,birds,barbara,eagle,yes,Please label the pictures below.,NA,NA,22,NA,NA,warmup/colibri.jpg,birds,graduated_high_school,English,male,NA,birds,NA,1,1566415572163,1,NA,This is an,1,These are both,NA,eagle,warmup2
328,swordfish,NA,8,warmup/goldfish.png,swordfish,This is a,No,2,fish,barbara,goldfish,yes,Please label the pictures below.,NA,NA,22,NA,NA,warmup/swordfish.jpg,fish,graduated_high_school,English,male,NA,fish,NA,2,1566415572163,1,NA,This is a,1,These are both,NA,goldfish,warmup2
328,chihuahua,NA,8,warmup/doberman.png,chihuahua,This is a,No,2,dogs,barbara,doberman,yes,Please label the pictures below.,NA,NA,22,NA,NA,warmup/chihuahua.jpg,dogs,graduated_high_school,English,male,NA,dogs,NA,3,1566415572163,1,NA,This is a,1,These are both,NA,doberman,warmup2
328,NA,images/dog-parade.png,8,NA,NA,That,No,2,dogs,barbara,NA,yes,This one is also in the parade.,predicative,You say to your friend:,22,chihuahua,NA,NA,NA,graduated_high_school,English,male,NA,NA,You see a parade of animals.,1,1566415572163,NA,images/chihuahua.png,NA,1,is small.,small,NA,main2
328,NA,images/fish-parade.png,8,NA,NA,That,No,2,fish,barbara,NA,yes,This one is also in the parade.,predicative,You say to your friend:,22,goldfish,NA,NA,NA,graduated_high_school,English,male,NA,NA,You see a parade of animals.,2,1566415572163,NA,images/goldfish.png,NA,1,is small.,small,NA,main2
328,NA,images/bird-parade2.png,8,NA,NA,That,No,2,birds,barbara,NA,yes,This one is also in the parade.,predicative,You say to your friend:,22,eagle,NA,NA,NA,graduated_high_school,English,male,NA,NA,You see a parade of animals.,3,1566415572163,NA,images/eagle.png,NA,1,is big.,big,NA,main2
324,tuna,NA,8,warmup/clownfish.jpg,tuna,This is a,no,1,fish,Patricia,clownfish,yes,Please label the pictures below.,NA,NA,33,NA,fun,warmup/tuna.jpg,fish,graduated_high_school,english,male,NA,fish,NA,1,1566415328679,1,NA,This is a,1,These are both,NA,clown,warmup1
324,tuna,NA,8,warmup/clownfish.jpg,tuna,This is a,no,1,fish,Patricia,clownfish,yes,Please label the pictures below.,NA,NA,33,NA,fun,warmup/tuna.jpg,fish,graduated_high_school,english,male,NA,fish,NA,1,1566415328679,2,NA,This is a,1,These are both,NA,clownfish,warmup1
324,swan,NA,8,warmup/canary.jpg,swan,This is a,no,1,birds,Patricia,canary,yes,Please label the pictures below.,NA,NA,33,NA,fun,warmup/swan.jpg,bird,graduated_high_school,english,male,NA,birds,NA,2,1566415328679,1,NA,This is a,1,These are both,NA,finch,warmup1
324,swan,NA,8,warmup/canary.jpg,swan,This is a,no,1,birds,Patricia,canary,yes,Please label the pictures below.,NA,NA,33,NA,fun,warmup/swan.jpg,bird,graduated_high_school,english,male,NA,birds,NA,2,1566415328679,2,NA,This is a,1,These are both,NA,canary,warmup1
324,swan,NA,8,warmup/canary.jpg,swan,This is a,no,1,birds,Patricia,canary,yes,Please label the pictures below.,NA,NA,33,NA,fun,warmup/swan.jpg,birds,graduated_high_school,english,male,NA,birds,NA,2,1566415328679,3,NA,This is a,1,These are both,NA,canary,warmup1
324,hummingbird,NA,8,warmup/eagle.jpg,hummingbird,This is a,no,1,birds,Patricia,eagle,yes,Please label the pictures below.,NA,NA,33,NA,fun,warmup/colibri.jpg,birds,graduated_high_school,english,male,NA,birds,NA,3,1566415328679,1,NA,This is an,1,These are both,NA,eagle,warmup1
324,NA,images/fish-parade2.png,8,NA,NA,That,no,1,fish,Patricia,NA,yes,This one is also in the parade.,predicative,You say to your friend:,33,clownfish,fun,NA,NA,graduated_high_school,english,male,NA,NA,You see a parade of animals.,1,1566415328679,NA,images/clownfish.png,NA,1,is small.,small,NA,main1
324,NA,images/bird-parade3.png,8,NA,NA,That,no,1,birds,Patricia,NA,yes,This one is also in the parade.,predicative,You say to your friend:,33,canary,fun,NA,NA,graduated_high_school,english,male,NA,NA,You see a parade of animals.,2,1566415328679,NA,images/canary.png,NA,1,is small.,small,NA,main1
324,NA,images/bird-parade2.png,8,NA,NA,That,no,1,birds,Patricia,NA,yes,This one is also in the parade.,predicative,You say to your friend:,33,eagle,fun,NA,NA,graduated_high_school,english,male,NA,NA,You see a parade of animals.,3,1566415328679,NA,images/eagle.png,NA,1,is big.,big,NA,main1
324,pug,NA,8,warmup/great-dane.jpg,pug,This is a,no,1,dogs,Patricia,great dane,yes,Please label the pictures below.,NA,NA,33,NA,fun,warmup/pug.jpg,dogs,graduated_high_school,english,male,NA,dogs,NA,1,1566415328679,1,NA,This is a,1,These are both,NA,lab,warmup2
324,pug,NA,8,warmup/great-dane.jpg,pug,This is a,no,1,dogs,Patricia,great dane,yes,Please label the pictures below.,NA,NA,33,NA,fun,warmup/pug.jpg,dogs,graduated_high_school,english,male,NA,dogs,NA,1,1566415328679,2,NA,This is a,1,These are both,NA,great dane,warmup2
324,swordfish,NA,8,warmup/goldfish.png,swordfish,This is a,no,1,fish,Patricia,goldfish,yes,Please label the pictures below.,NA,NA,33,NA,fun,warmup/swordfish.jpg,fish,graduated_high_school,english,male,NA,fish,NA,2,1566415328679,1,NA,This is a,1,These are both,NA,clownfish,warmup2
324,swordfish,NA,8,warmup/goldfish.png,swordfish,This is a,no,1,fish,Patricia,goldfish,yes,Please label the pictures below.,NA,NA,33,NA,fun,warmup/swordfish.jpg,fish,graduated_high_school,english,male,NA,fish,NA,2,1566415328679,2,NA,This is a,1,These are both,NA,goldfish,warmup2
324,dandilion,NA,8,warmup/peony.png,daisy,This is a,no,1,flowers,Patricia,peony,yes,Please label the pictures below.,NA,NA,33,NA,fun,warmup/daisy.png,flowers,graduated_high_school,english,male,NA,flowers,NA,3,1566415328679,1,NA,This is a,1,These are both,NA,carnation,warmup2
324,daisy,NA,8,warmup/peony.png,daisy,This is a,no,1,flowers,Patricia,peony,yes,Please label the pictures below.,NA,NA,33,NA,fun,warmup/daisy.png,flowers,graduated_high_school,english,male,NA,flowers,NA,3,1566415328679,2,NA,This is a,1,These are both,NA,peony,warmup2
324,NA,images/fish-parade.png,8,NA,NA,That,no,1,fish,Patricia,NA,yes,This one is also in the parade.,predicative,You say to your friend:,33,swordfish,fun,NA,NA,graduated_high_school,english,male,NA,NA,You see a parade of animals.,1,1566415328679,NA,images/swordfish.png,NA,1,is big.,big,NA,main2
324,NA,images/flower-parade.png,8,NA,NA,That,no,1,flowers,Patricia,NA,yes,This one is also in the collection.,predicative,You say to your friend:,33,daisy,fun,NA,NA,graduated_high_school,english,male,NA,NA,You see a collection of plants.,2,1566415328679,NA,images/daisy.png,NA,1,is small.,small,NA,main2
324,NA,images/dog-parade2.png,8,NA,NA,That,no,1,dogs,Patricia,NA,yes,This one is also in the parade.,predicative,You say to your friend:,33,great dane,fun,NA,NA,graduated_high_school,english,male,NA,NA,You see a parade of animals.,3,1566415328679,NA,images/great-dane.png,NA,1,is big.,big,NA,main2
321,dog,NA,8,warmup/great-dane.jpg,pug,This is a,No,1,dogs,jessica,great dane,yes,Please label the pictures below.,NA,NA,36,NA,No comment.,warmup/pug.jpg,dogs,graduated_college,English,female,NA,dogs,NA,1,1566414507527,1,NA,This is a,1,These are both,NA,dog,warmup1
321,pug,NA,8,warmup/great-dane.jpg,pug,This is a,No,1,dogs,jessica,great dane,yes,Please label the pictures below.,NA,NA,36,NA,No comment.,warmup/pug.jpg,dogs,graduated_college,English,female,NA,dogs,NA,1,1566414507527,2,NA,This is a,1,These are both,NA,great dane,warmup1
321,goose,NA,8,warmup/sparrow.jpg,goose,This is a,No,1,birds,jessica,sparrow,yes,Please label the pictures below.,NA,NA,36,NA,No comment.,warmup/goose.png,birds,graduated_college,English,female,NA,birds,NA,2,1566414507527,1,NA,This is a,1,These are both,NA,sparrow,warmup1
321,marlin,NA,8,warmup/goldfish.png,swordfish,This is a,No,1,fish,jessica,goldfish,yes,Please label the pictures below.,NA,NA,36,NA,No comment.,warmup/swordfish.jpg,fish,graduated_college,English,female,NA,fish,NA,3,1566414507527,1,NA,This is a,1,These are both,NA,goldfish,warmup1
321,swordfish,NA,8,warmup/goldfish.png,swordfish,This is a,No,1,fish,jessica,goldfish,yes,Please label the pictures below.,NA,NA,36,NA,No comment.,warmup/swordfish.jpg,fish,graduated_college,English,female,NA,fish,NA,3,1566414507527,2,NA,This is a,1,These are both,NA,goldfish,warmup1
321,NA,images/fish-parade.png,8,NA,NA,That,No,1,fish,jessica,NA,yes,This one is also in the parade.,predicative,You say to your friend:,36,fish,No comment.,NA,NA,graduated_college,English,female,NA,NA,You see a parade of animals.,1,1566414507527,NA,images/goldfish.png,NA,1,is small.,small,NA,main1
321,NA,images/dog-parade2.png,8,NA,NA,That,No,1,dogs,jessica,NA,yes,This one is also in the parade.,predicative,You say to your friend:,36,dog,No comment.,NA,NA,graduated_college,English,female,NA,NA,You see a parade of animals.,2,1566414507527,NA,images/great-dane.png,NA,1,is big.,big,NA,main1
321,NA,images/bird-parade.png,8,NA,NA,That,No,1,birds,jessica,NA,yes,This one is also in the parade.,predicative,You say to your friend:,36,bird,No comment.,NA,NA,graduated_college,English,female,NA,NA,You see a parade of animals.,3,1566414507527,NA,images/sparrow.png,NA,1,is small.,small,NA,main1
321,swan,NA,8,warmup/canary.jpg,swan,This is a,No,1,birds,jessica,canary,yes,Please label the pictures below.,NA,NA,36,NA,No comment.,warmup/swan.jpg,birds,graduated_college,English,female,NA,birds,NA,1,1566414507527,1,NA,This is a,1,These are both,NA,canary,warmup2
321,hummingbird,NA,8,warmup/eagle.jpg,hummingbird,This is a,No,1,birds,jessica,eagle,yes,Please label the pictures below.,NA,NA,36,NA,No comment.,warmup/colibri.jpg,birds,graduated_college,English,female,NA,birds,NA,2,1566414507527,1,NA,This is an,1,These are both,NA,eagle,warmup2
321,tuna,NA,8,warmup/clownfish.jpg,tuna,This is a,No,1,fish,jessica,clownfish,yes,Please label the pictures below.,NA,NA,36,NA,No comment.,warmup/tuna.jpg,fish,graduated_college,English,female,NA,fish,NA,3,1566414507527,1,NA,This is a,1,These are both,NA,clownfish,warmup2
321,NA,images/fish-parade2.png,8,NA,NA,That,No,1,fish,jessica,NA,yes,This one is also in the parade.,predicative,You say to your friend:,36,fish,No comment.,NA,NA,graduated_college,English,female,NA,NA,You see a parade of animals.,1,1566414507527,NA,images/tuna.png,NA,1,is big.,big,NA,main2
321,NA,images/bird-parade3.png,8,NA,NA,That,No,1,birds,jessica,NA,yes,This one is also in the parade.,predicative,You say to your friend:,36,bird,No comment.,NA,NA,graduated_college,English,female,NA,NA,You see a parade of animals.,2,1566414507527,NA,images/canary.png,NA,1,is small.,small,NA,main2
321,NA,images/bird-parade2.png,8,NA,NA,That,No,1,birds,jessica,NA,yes,This one is also in the parade.,predicative,You say to your friend:,36,bird,No comment.,NA,NA,graduated_college,English,female,NA,NA,You see a parade of animals.,3,1566414507527,NA,images/eagle.png,NA,1,is big.,big,NA,main2
320,pug,NA,8,warmup/great-dane.jpg,pug,This is a,NA,1,dogs,jennifer,great dane,NA,Please label the pictures below.,NA,NA,NA,NA,NA,warmup/pug.jpg,dogs,graduated_college,English,male,NA,dogs,NA,1,1566414502021,1,NA,This is a,0.75,These are both,NA,great dane,warmup1
320,hummingbird,NA,8,warmup/eagle.jpg,hummingbird,This is a,NA,1,birds,jennifer,eagle,NA,Please label the pictures below.,NA,NA,NA,NA,NA,warmup/colibri.jpg,birds,graduated_college,English,male,NA,birds,NA,2,1566414502021,1,NA,This is an,0.75,These are both,NA,eagle,warmup1
320,dandelion,NA,8,warmup/sunflower.png,dandelion,This is a,NA,1,flowers,jennifer,sunflower,NA,Please label the pictures below.,NA,NA,NA,NA,NA,warmup/dandelion.jpg,flowers,graduated_college,English,male,NA,flowers,NA,3,1566414502021,1,NA,This is a,0.75,These are both,NA,sunflower,warmup1
320,NA,images/bird-parade2.png,8,NA,NA,That,NA,1,birds,jennifer,NA,NA,This one is also in the parade.,predicative,You say to your friend:,NA,eagle,NA,NA,NA,graduated_college,English,male,NA,NA,You see a parade of animals.,1,1566414502021,NA,images/eagle.png,NA,0.75,is big.,big,NA,main1
320,NA,images/dog-parade2.png,8,NA,NA,That,NA,1,dogs,jennifer,NA,NA,This one is also in the parade.,predicative,You say to your friend:,NA,pug,NA,NA,NA,graduated_college,English,male,NA,NA,You see a parade of animals.,2,1566414502021,NA,images/pug.png,NA,0.75,is small.,small,NA,main1
320,NA,images/flower-parade2.png,8,NA,NA,That,NA,1,flowers,jennifer,NA,NA,This one is also in the collection.,predicative,You say to your friend:,NA,sunflower,NA,NA,NA,graduated_college,English,male,NA,NA,You see a collection of plants.,3,1566414502021,NA,images/sunflower.png,NA,0.75,is big.,big,NA,main1
320,swan,NA,8,warmup/canary.jpg,swan,This is a,NA,1,birds,jennifer,canary,NA,Please label the pictures below.,NA,NA,NA,NA,NA,warmup/swan.jpg,birds,graduated_college,English,male,NA,birds,NA,1,1566414502021,1,NA,This is a,0.75,These are both,NA,finch,warmup2
320,swan,NA,8,warmup/canary.jpg,swan,This is a,NA,1,birds,jennifer,canary,NA,Please label the pictures below.,NA,NA,NA,NA,NA,warmup/swan.jpg,birds,graduated_college,English,male,NA,birds,NA,1,1566414502021,2,NA,This is a,0.75,These are both,NA,canary,warmup2
320,goose,NA,8,warmup/sparrow.jpg,goose,This is a,NA,1,birds,jennifer,sparrow,NA,Please label the pictures below.,NA,NA,NA,NA,NA,warmup/goose.png,birds,graduated_college,English,male,NA,birds,NA,2,1566414502021,1,NA,This is a,0.75,These are both,NA,swallow,warmup2
320,goose,NA,8,warmup/sparrow.jpg,goose,This is a,NA,1,birds,jennifer,sparrow,NA,Please label the pictures below.,NA,NA,NA,NA,NA,warmup/goose.png,birds,graduated_college,English,male,NA,birds,NA,2,1566414502021,2,NA,This is a,0.75,These are both,NA,sparrow,warmup2
320,chihuaha,NA,8,warmup/doberman.png,chihuahua,This is a,NA,1,dogs,jennifer,doberman,NA,Please label the pictures below.,NA,NA,NA,NA,NA,warmup/chihuahua.jpg,dogs,graduated_college,English,male,NA,dogs,NA,3,1566414502021,1,NA,This is a,0.75,These are both,NA,doberman,warmup2
320,chihuahua,NA,8,warmup/doberman.png,chihuahua,This is a,NA,1,dogs,jennifer,doberman,NA,Please label the pictures below.,NA,NA,NA,NA,NA,warmup/chihuahua.jpg,dogs,graduated_college,English,male,NA,dogs,NA,3,1566414502021,2,NA,This is a,0.75,These are both,NA,doberman,warmup2
320,NA,images/bird-parade3.png,8,NA,NA,That,NA,1,birds,jennifer,NA,NA,This one is also in the parade.,predicative,You say to your friend:,NA,swan,NA,NA,NA,graduated_college,English,male,NA,NA,You see a parade of animals.,1,1566414502021,NA,images/swan.png,NA,0.75,is big.,big,NA,main2
320,NA,images/bird-parade.png,8,NA,NA,That,NA,1,birds,jennifer,NA,NA,This one is also in the parade.,predicative,You say to your friend:,NA,sparrow,NA,NA,NA,graduated_college,English,male,NA,NA,You see a parade of animals.,2,1566414502021,NA,images/sparrow.png,NA,0.75,is small.,small,NA,main2
320,NA,images/dog-parade.png,8,NA,NA,That,NA,1,dogs,jennifer,NA,NA,This one is also in the parade.,predicative,You say to your friend:,NA,chihuahua,NA,NA,NA,graduated_college,English,male,NA,NA,You see a parade of animals.,3,1566414502021,NA,images/chihuahua.png,NA,0.75,is small.,small,NA,main2
319,trout,NA,8,warmup/clownfish.jpg,tuna,This is a,no,1,fish,Patricia,clownfish,yes,Please label the pictures below.,NA,NA,36,NA,NA,warmup/tuna.jpg,fish,graduated_college,English,male,NA,fish,NA,1,1566414373668,1,NA,This is a,1,These are both,NA,goldfish,warmup1
319,tuna,NA,8,warmup/clownfish.jpg,tuna,This is a,no,1,fish,Patricia,clownfish,yes,Please label the pictures below.,NA,NA,36,NA,NA,warmup/tuna.jpg,fish,graduated_college,English,male,NA,fish,NA,1,1566414373668,2,NA,This is a,1,These are both,NA,clownfish,warmup1
319,hummingbird,NA,8,warmup/eagle.jpg,hummingbird,This is a,no,1,birds,Patricia,eagle,yes,Please label the pictures below.,NA,NA,36,NA,NA,warmup/colibri.jpg,birds,graduated_college,English,male,NA,birds,NA,2,1566414373668,1,NA,This is an,1,These are both,NA,eagle,warmup1
319,goose,NA,8,warmup/sparrow.jpg,goose,This is a,no,1,birds,Patricia,sparrow,yes,Please label the pictures below.,NA,NA,36,NA,NA,warmup/goose.png,birds,graduated_college,English,male,NA,birds,NA,3,1566414373668,1,NA,This is a,1,These are both,NA,bird,warmup1
319,goose,NA,8,warmup/sparrow.jpg,goose,This is a,no,1,birds,Patricia,sparrow,yes,Please label the pictures below.,NA,NA,36,NA,NA,warmup/goose.png,birds,graduated_college,English,male,NA,birds,NA,3,1566414373668,2,NA,This is a,1,These are both,NA,sparrow,warmup1
319,NA,images/fish-parade2.png,8,NA,NA,That,no,1,fish,Patricia,NA,yes,This one is also in the parade.,predicative,You say to your friend:,36,clownfish,NA,NA,NA,graduated_college,English,male,NA,NA,You see a parade of animals.,1,1566414373668,NA,images/clownfish.png,NA,1,is small.,small,NA,main1
319,NA,images/bird-parade.png,8,NA,NA,That,no,1,birds,Patricia,NA,yes,This one is also in the parade.,predicative,You say to your friend:,36,goose,NA,NA,NA,graduated_college,English,male,NA,NA,You see a parade of animals.,2,1566414373668,NA,images/goose.png,NA,1,is big.,big,NA,main1
319,NA,images/bird-parade2.png,8,NA,NA,That,no,1,birds,Patricia,NA,yes,This one is also in the parade.,predicative,You say to your friend:,36,hummingbird,NA,NA,NA,graduated_college,English,male,NA,NA,You see a parade of animals.,3,1566414373668,NA,images/hummingbird.png,NA,1,is small.,small,NA,main1
319,oak,NA,8,warmup/bonsai.jpg,redwood|sequoia,This is a,no,1,trees,Patricia,bonsai,yes,Please label the pictures below.,NA,NA,36,NA,NA,warmup/sequoia.jpg,trees,graduated_college,English,male,NA,trees,NA,1,1566414373668,1,NA,This is a,1,These are both,NA,banzi,warmup2
319,redwood,NA,8,warmup/bonsai.jpg,redwood|sequoia,This is a,no,1,trees,Patricia,bonsai,yes,Please label the pictures below.,NA,NA,36,NA,NA,warmup/sequoia.jpg,trees,graduated_college,English,male,NA,trees,NA,1,1566414373668,2,NA,This is a,1,These are both,NA,bonsai,warmup2
319,dandelion,NA,8,warmup/sunflower.png,dandelion,This is a,no,1,flowers,Patricia,sunflower,yes,Please label the pictures below.,NA,NA,36,NA,NA,warmup/dandelion.jpg,flowers,graduated_college,English,male,NA,flowers,NA,2,1566414373668,1,NA,This is a,1,These are both,NA,sunflower,warmup2
319,dandelion,NA,8,warmup/peony.png,daisy,This is a,no,1,flowers,Patricia,peony,yes,Please label the pictures below.,NA,NA,36,NA,NA,warmup/daisy.png,flowers,graduated_college,English,male,NA,flowers,NA,3,1566414373668,1,NA,This is a,1,These are both,NA,rose,warmup2
319,daisy,NA,8,warmup/peony.png,daisy,This is a,no,1,flowers,Patricia,peony,yes,Please label the pictures below.,NA,NA,36,NA,NA,warmup/daisy.png,flowers,graduated_college,English,male,NA,flowers,NA,3,1566414373668,2,NA,This is a,1,These are both,NA,peony,warmup2
319,NA,images/flower-parade2.png,8,NA,NA,That,no,1,flowers,Patricia,NA,yes,This one is also in the collection.,predicative,You say to your friend:,36,sunflower,NA,NA,NA,graduated_college,English,male,NA,NA,You see a collection of plants.,1,1566414373668,NA,images/sunflower.png,NA,1,is big.,big,NA,main2
319,NA,images/tree-parade.png,8,NA,NA,That,no,1,trees,Patricia,NA,yes,This one is also in the landscape.,predicative,You say to your friend:,36,redwood,NA,NA,NA,graduated_college,English,male,NA,NA,You see the following items in a landscape.,2,1566414373668,NA,images/sequoia.png,NA,1,is big.,big,NA,main2
319,NA,images/flower-parade.png,8,NA,NA,That,no,1,flowers,Patricia,NA,yes,This one is also in the collection.,predicative,You say to your friend:,36,flower,NA,NA,NA,graduated_college,English,male,NA,NA,You see a collection of plants.,3,1566414373668,NA,images/daisy.png,NA,1,is small.,small,NA,main2
318,hummingbird,NA,8,warmup/eagle.jpg,hummingbird,This is a,NA,2,birds,margaret,eagle,yes,Please label the pictures below.,NA,NA,31,NA,NA,warmup/colibri.jpg,birds,graduated_college,English,male,NA,birds,NA,1,1566414354828,1,NA,This is an,1,These are both,NA,eagle,warmup1
318,swordfish,NA,8,warmup/goldfish.png,swordfish,This is a,NA,2,fish,margaret,goldfish,yes,Please label the pictures below.,NA,NA,31,NA,NA,warmup/swordfish.jpg,fish,graduated_college,English,male,NA,fish,NA,2,1566414354828,1,NA,This is a,1,These are both,NA,goldfish,warmup1
318,daisy,NA,8,warmup/peony.png,daisy,This is a,NA,2,flowers,margaret,peony,yes,Please label the pictures below.,NA,NA,31,NA,NA,warmup/daisy.png,flowers,graduated_college,English,male,NA,flowers,NA,3,1566414354828,1,NA,This is a,1,These are both,NA,rose,warmup1
318,daisy,NA,8,warmup/peony.png,daisy,This is a,NA,2,flowers,margaret,peony,yes,Please label the pictures below.,NA,NA,31,NA,NA,warmup/daisy.png,flowers,graduated_college,English,male,NA,flowers,NA,3,1566414354828,2,NA,This is a,1,These are both,NA,peony,warmup1
318,NA,images/bird-parade2.png,8,NA,NA,That,NA,2,birds,margaret,NA,yes,This one is also in the parade.,predicative,You say to your friend:,31,eagle,NA,NA,NA,graduated_college,English,male,NA,NA,You see a parade of animals.,1,1566414354828,NA,images/eagle.png,NA,1,is big.,big,NA,main1
318,NA,images/fish-parade.png,8,NA,NA,That,NA,2,fish,margaret,NA,yes,This one is also in the parade.,predicative,You say to your friend:,31,swordfish,NA,NA,NA,graduated_college,English,male,NA,NA,You see a parade of animals.,2,1566414354828,NA,images/swordfish.png,NA,1,is big.,big,NA,main1
318,NA,images/flower-parade.png,8,NA,NA,That,NA,2,flowers,margaret,NA,yes,This one is also in the collection.,predicative,You say to your friend:,31,daisy,NA,NA,NA,graduated_college,English,male,NA,NA,You see a collection of plants.,3,1566414354828,NA,images/daisy.png,NA,1,is small.,small,NA,main1
318,tree,NA,8,warmup/bonsai.jpg,redwood|sequoia,This is a,NA,2,trees,margaret,bonsai,yes,Please label the pictures below.,NA,NA,31,NA,NA,warmup/sequoia.jpg,trees,graduated_college,English,male,NA,trees,NA,1,1566414354828,1,NA,This is a,1,These are both,NA,tree,warmup2
318,"redwood,sequoia",NA,8,warmup/bonsai.jpg,redwood|sequoia,This is a,NA,2,trees,margaret,bonsai,yes,Please label the pictures below.,NA,NA,31,NA,NA,warmup/sequoia.jpg,trees,graduated_college,English,male,NA,trees,NA,1,1566414354828,2,NA,This is a,1,These are both,NA,bonsai,warmup2
318,"redwood,sequoia",NA,8,warmup/bonsai.jpg,redwood|sequoia,This is a,NA,2,trees,margaret,bonsai,yes,Please label the pictures below.,NA,NA,31,NA,NA,warmup/sequoia.jpg,trees,graduated_college,English,male,NA,trees,NA,1,1566414354828,3,NA,This is a,1,These are both,NA,bonsai,warmup2
318,redwood,NA,8,warmup/bonsai.jpg,redwood|sequoia,This is a,NA,2,trees,margaret,bonsai,yes,Please label the pictures below.,NA,NA,31,NA,NA,warmup/sequoia.jpg,trees,graduated_college,English,male,NA,trees,NA,1,1566414354828,4,NA,This is a,1,These are both,NA,bonsai,warmup2
318,pug,NA,8,warmup/great-dane.jpg,pug,This is a,NA,2,dogs,margaret,great dane,yes,Please label the pictures below.,NA,NA,31,NA,NA,warmup/pug.jpg,dogs,graduated_college,English,male,NA,dogs,NA,2,1566414354828,1,NA,This is a,1,These are both,NA,dog,warmup2
318,pug,NA,8,warmup/great-dane.jpg,pug,This is a,NA,2,dogs,margaret,great dane,yes,Please label the pictures below.,NA,NA,31,NA,NA,warmup/pug.jpg,dogs,graduated_college,English,male,NA,dogs,NA,2,1566414354828,2,NA,This is a,1,These are both,NA,great dane,warmup2
318,dove,NA,8,warmup/canary.jpg,swan,This is a,NA,2,birds,margaret,canary,yes,Please label the pictures below.,NA,NA,31,NA,NA,warmup/swan.jpg,birds,graduated_college,English,male,NA,birds,NA,3,1566414354828,1,NA,This is a,1,These are both,NA,bird,warmup2
318,swan,NA,8,warmup/canary.jpg,swan,This is a,NA,2,birds,margaret,canary,yes,Please label the pictures below.,NA,NA,31,NA,NA,warmup/swan.jpg,birds,graduated_college,English,male,NA,birds,NA,3,1566414354828,2,NA,This is a,1,These are both,NA,canary,warmup2
318,NA,images/tree-parade.png,8,NA,NA,That,NA,2,trees,margaret,NA,yes,This one is also in the landscape.,predicative,You say to your friend:,31,bonsai,NA,NA,NA,graduated_college,English,male,NA,NA,You see the following items in a landscape.,1,1566414354828,NA,images/bonsai.png,NA,1,is small.,small,NA,main2
318,NA,images/dog-parade2.png,8,NA,NA,That,NA,2,dogs,margaret,NA,yes,This one is also in the parade.,predicative,You say to your friend:,31,pug,NA,NA,NA,graduated_college,English,male,NA,NA,You see a parade of animals.,2,1566414354828,NA,images/pug.png,NA,1,is small.,small,NA,main2
318,NA,images/bird-parade3.png,8,NA,NA,That,NA,2,birds,margaret,NA,yes,This one is also in the parade.,predicative,You say to your friend:,31,swan,NA,NA,NA,graduated_college,English,male,NA,NA,You see a parade of animals.,3,1566414354828,NA,images/swan.png,NA,1,is big.,big,NA,main2
317,bird,NA,8,warmup/eagle.jpg,hummingbird,This is a,no,2,birds,Elizabeth,eagle,yes,Please label the pictures below.,NA,NA,41,NA,love the study,warmup/colibri.jpg,birds,higher_degree,ENGLISH,male,NA,birds,NA,1,1566414191674,1,NA,This is an,1.5,These are both,NA,eagle,warmup1
317,bird,NA,8,warmup/eagle.jpg,hummingbird,This is a,no,2,birds,Elizabeth,eagle,yes,Please label the pictures below.,NA,NA,41,NA,love the study,warmup/colibri.jpg,birds,higher_degree,ENGLISH,male,NA,birds,NA,1,1566414191674,2,NA,This is an,1.5,These are both,NA,eagle,warmup1
317,bird,NA,8,warmup/eagle.jpg,hummingbird,This is a,no,2,birds,Elizabeth,eagle,yes,Please label the pictures below.,NA,NA,41,NA,love the study,warmup/colibri.jpg,birds,higher_degree,ENGLISH,male,NA,birds,NA,1,1566414191674,3,NA,This is an,1.5,These are both,NA,eagle,warmup1
317,hummingbird,NA,8,warmup/eagle.jpg,hummingbird,This is a,no,2,birds,Elizabeth,eagle,yes,Please label the pictures below.,NA,NA,41,NA,love the study,warmup/colibri.jpg,birds,higher_degree,ENGLISH,male,NA,birds,NA,1,1566414191674,4,NA,This is an,1.5,These are both,NA,eagle,warmup1
317,dandelion,NA,8,warmup/sunflower.png,dandelion,This is a,no,2,flowers,Elizabeth,sunflower,yes,Please label the pictures below.,NA,NA,41,NA,love the study,warmup/dandelion.jpg,flowers,higher_degree,ENGLISH,male,NA,flowers,NA,2,1566414191674,1,NA,This is a,1.5,These are both,NA,sunflower,warmup1
317,shark,NA,8,warmup/goldfish.png,swordfish,This is a,no,2,fish,Elizabeth,goldfish,yes,Please label the pictures below.,NA,NA,41,NA,love the study,warmup/swordfish.jpg,fish,higher_degree,ENGLISH,male,NA,fish,NA,3,1566414191674,1,NA,This is a,1.5,These are both,NA,fish,warmup1
317,shark,NA,8,warmup/goldfish.png,swordfish,This is a,no,2,fish,Elizabeth,goldfish,yes,Please label the pictures below.,NA,NA,41,NA,love the study,warmup/swordfish.jpg,fish,higher_degree,ENGLISH,male,NA,fish,NA,3,1566414191674,2,NA,This is a,1.5,These are both,NA,goldfish,warmup1
317,shark,NA,8,warmup/goldfish.png,swordfish,This is a,no,2,fish,Elizabeth,goldfish,yes,Please label the pictures below.,NA,NA,41,NA,love the study,warmup/swordfish.jpg,fish,higher_degree,ENGLISH,male,NA,fish,NA,3,1566414191674,3,NA,This is a,1.5,These are both,NA,goldfish,warmup1
317,shark,NA,8,warmup/goldfish.png,swordfish,This is a,no,2,fish,Elizabeth,goldfish,yes,Please label the pictures below.,NA,NA,41,NA,love the study,warmup/swordfish.jpg,fish,higher_degree,ENGLISH,male,NA,fish,NA,3,1566414191674,4,NA,This is a,1.5,These are both,NA,goldfish,warmup1
317,Atlantic blue marlin,NA,8,warmup/goldfish.png,swordfish,This is a,no,2,fish,Elizabeth,goldfish,yes,Please label the pictures below.,NA,NA,41,NA,love the study,warmup/swordfish.jpg,fish,higher_degree,ENGLISH,male,NA,fish,NA,3,1566414191674,5,NA,This is a,1.5,These are both,NA,goldfish,warmup1
317,Atlantic blue marlin,NA,8,warmup/goldfish.png,swordfish,This is a,no,2,fish,Elizabeth,goldfish,yes,Please label the pictures below.,NA,NA,41,NA,love the study,warmup/swordfish.jpg,fish,higher_degree,ENGLISH,male,NA,fish,NA,3,1566414191674,6,NA,This is a,1.5,These are both,NA,goldfish,warmup1
317,Atlantic blue marlin,NA,8,warmup/goldfish.png,swordfish,This is a,no,2,fish,Elizabeth,goldfish,yes,Please label the pictures below.,NA,NA,41,NA,love the study,warmup/swordfish.jpg,fish,higher_degree,ENGLISH,male,NA,fish,NA,3,1566414191674,7,NA,This is a,1.5,These are both,NA,goldfish,warmup1
317,Atlantic blue marlin,NA,8,warmup/goldfish.png,swordfish,This is a,no,2,fish,Elizabeth,goldfish,yes,Please label the pictures below.,NA,NA,41,NA,love the study,warmup/swordfish.jpg,fish,higher_degree,ENGLISH,male,NA,fish,NA,3,1566414191674,8,NA,This is a,1.5,These are both,NA,goldfish,warmup1
317,Atlantic blue marlin,NA,8,warmup/goldfish.png,swordfish,This is a,no,2,fish,Elizabeth,goldfish,yes,Please label the pictures below.,NA,NA,41,NA,love the study,warmup/swordfish.jpg,fishes,higher_degree,ENGLISH,male,NA,fish,NA,3,1566414191674,9,NA,This is a,1.5,These are both,NA,goldfish,warmup1
317,swordfish,NA,8,warmup/goldfish.png,swordfish,This is a,no,2,fish,Elizabeth,goldfish,yes,Please label the pictures below.,NA,NA,41,NA,love the study,warmup/swordfish.jpg,fish,higher_degree,ENGLISH,male,NA,fish,NA,3,1566414191674,10,NA,This is a,1.5,These are both,NA,goldfish,warmup1
317,NA,images/fish-parade.png,8,NA,NA,That,no,2,fish,Elizabeth,NA,yes,This one is also in the parade.,predicative,You say to your friend:,41,swordfish,love the study,NA,NA,higher_degree,ENGLISH,male,NA,NA,You see a parade of animals.,1,1566414191674,NA,images/swordfish.png,NA,1.5,is big.,big,NA,main1
317,NA,images/bird-parade2.png,8,NA,NA,That,no,2,birds,Elizabeth,NA,yes,This one is also in the parade.,predicative,You say to your friend:,41,eagle,love the study,NA,NA,higher_degree,ENGLISH,male,NA,NA,You see a parade of animals.,2,1566414191674,NA,images/eagle.png,NA,1.5,is big.,big,NA,main1
317,NA,images/flower-parade2.png,8,NA,NA,That,no,2,flowers,Elizabeth,NA,yes,This one is also in the collection.,predicative,You say to your friend:,41,sunflower,love the study,NA,NA,higher_degree,ENGLISH,male,NA,NA,You see a collection of plants.,3,1566414191674,NA,images/dandelion.png,NA,1.5,is small.,small,NA,main1
317,dog,NA,8,warmup/doberman.png,chihuahua,This is a,no,2,dogs,Elizabeth,doberman,yes,Please label the pictures below.,NA,NA,41,NA,love the study,warmup/chihuahua.jpg,dog,higher_degree,ENGLISH,male,NA,dogs,NA,1,1566414191674,1,NA,This is a,1.5,These are both,NA,dog,warmup2
317,chihuahua,NA,8,warmup/doberman.png,chihuahua,This is a,no,2,dogs,Elizabeth,doberman,yes,Please label the pictures below.,NA,NA,41,NA,love the study,warmup/chihuahua.jpg,dogs,higher_degree,ENGLISH,male,NA,dogs,NA,1,1566414191674,2,NA,This is a,1.5,These are both,NA,doberman,warmup2
317,duck,NA,8,warmup/canary.jpg,swan,This is a,no,2,birds,Elizabeth,canary,yes,Please label the pictures below.,NA,NA,41,NA,love the study,warmup/swan.jpg,birds,higher_degree,ENGLISH,male,NA,birds,NA,2,1566414191674,1,NA,This is a,1.5,These are both,NA,bird,warmup2
317,swan,NA,8,warmup/canary.jpg,swan,This is a,no,2,birds,Elizabeth,canary,yes,Please label the pictures below.,NA,NA,41,NA,love the study,warmup/swan.jpg,birds,higher_degree,ENGLISH,male,NA,birds,NA,2,1566414191674,2,NA,This is a,1.5,These are both,NA,canary,warmup2
317,fish,NA,8,warmup/clownfish.jpg,tuna,This is a,no,2,fish,Elizabeth,clownfish,yes,Please label the pictures below.,NA,NA,41,NA,love the study,warmup/tuna.jpg,fish,higher_degree,ENGLISH,male,NA,fish,NA,3,1566414191674,1,NA,This is a,1.5,These are both,NA,fish,warmup2
317,tuna,NA,8,warmup/clownfish.jpg,tuna,This is a,no,2,fish,Elizabeth,clownfish,yes,Please label the pictures below.,NA,NA,41,NA,love the study,warmup/tuna.jpg,fish,higher_degree,ENGLISH,male,NA,fish,NA,3,1566414191674,2,NA,This is a,1.5,These are both,NA,clownfish,warmup2
317,NA,images/dog-parade.png,8,NA,NA,That,no,2,dogs,Elizabeth,NA,yes,This one is also in the parade.,predicative,You say to your friend:,41,dog,love the study,NA,NA,higher_degree,ENGLISH,male,NA,NA,You see a parade of animals.,1,1566414191674,NA,images/doberman.png,NA,1.5,is big.,big,NA,main2
317,NA,images/fish-parade2.png,8,NA,NA,That,no,2,fish,Elizabeth,NA,yes,This one is also in the parade.,predicative,You say to your friend:,41,swordfish,love the study,NA,NA,higher_degree,ENGLISH,male,NA,NA,You see a parade of animals.,2,1566414191674,NA,images/clownfish.png,NA,1.5,is small.,small,NA,main2
317,NA,images/bird-parade3.png,8,NA,NA,That,no,2,birds,Elizabeth,NA,yes,This one is also in the parade.,predicative,You say to your friend:,41,bird,love the study,NA,NA,higher_degree,ENGLISH,male,NA,NA,You see a parade of animals.,3,1566414191674,NA,images/canary.png,NA,1.5,is small.,small,NA,main2
316,duck,NA,8,warmup/canary.jpg,swan,This is a,no,2,birds,patricia,canary,NA,Please label the pictures below.,NA,NA,39,NA,nice survey,warmup/swan.jpg,birds,graduated_college,english,male,NA,birds,NA,1,1566414034271,1,NA,This is a,1,These are both,NA,bird,warmup1
316,swan,NA,8,warmup/canary.jpg,swan,This is a,no,2,birds,patricia,canary,NA,Please label the pictures below.,NA,NA,39,NA,nice survey,warmup/swan.jpg,birds,graduated_college,english,male,NA,birds,NA,1,1566414034271,2,NA,This is a,1,These are both,NA,canary,warmup1
316,tillapia,NA,8,warmup/clownfish.jpg,tuna,This is a,no,2,fish,patricia,clownfish,NA,Please label the pictures below.,NA,NA,39,NA,nice survey,warmup/tuna.jpg,fish,graduated_college,english,male,NA,fish,NA,2,1566414034271,1,NA,This is a,1,These are both,NA,electric fish,warmup1
316,tuna,NA,8,warmup/clownfish.jpg,tuna,This is a,no,2,fish,patricia,clownfish,NA,Please label the pictures below.,NA,NA,39,NA,nice survey,warmup/tuna.jpg,fish,graduated_college,english,male,NA,fish,NA,2,1566414034271,2,NA,This is a,1,These are both,NA,clownfish,warmup1
316,dog,NA,8,warmup/doberman.png,chihuahua,This is a,no,2,dogs,patricia,doberman,NA,Please label the pictures below.,NA,NA,39,NA,nice survey,warmup/chihuahua.jpg,dog,graduated_college,english,male,NA,dogs,NA,3,1566414034271,1,NA,This is a,1,These are both,NA,rotweiller,warmup1
316,chihuahua,NA,8,warmup/doberman.png,chihuahua,This is a,no,2,dogs,patricia,doberman,NA,Please label the pictures below.,NA,NA,39,NA,nice survey,warmup/chihuahua.jpg,dogs,graduated_college,english,male,NA,dogs,NA,3,1566414034271,2,NA,This is a,1,These are both,NA,doberman,warmup1
316,NA,images/fish-parade2.png,8,NA,NA,That,no,2,fish,patricia,NA,NA,This one is also in the parade.,predicative,You say to your friend:,39,clownfish,nice survey,NA,NA,graduated_college,english,male,NA,NA,You see a parade of animals.,1,1566414034271,NA,images/clownfish.png,NA,1,is small.,small,NA,main1
316,NA,images/dog-parade.png,8,NA,NA,That,no,2,dogs,patricia,NA,NA,This one is also in the parade.,predicative,You say to your friend:,39,chihuahua,nice survey,NA,NA,graduated_college,english,male,NA,NA,You see a parade of animals.,2,1566414034271,NA,images/chihuahua.png,NA,1,is small.,small,NA,main1
316,NA,images/bird-parade3.png,8,NA,NA,That,no,2,birds,patricia,NA,NA,This one is also in the parade.,predicative,You say to your friend:,39,swan,nice survey,NA,NA,graduated_college,english,male,NA,NA,You see a parade of animals.,3,1566414034271,NA,images/swan.png,NA,1,is big.,big,NA,main1
316,palm,NA,8,warmup/bonsai.jpg,redwood|sequoia,This is a,no,2,trees,patricia,bonsai,NA,Please label the pictures below.,NA,NA,39,NA,nice survey,warmup/sequoia.jpg,trees,graduated_college,english,male,NA,trees,NA,1,1566414034271,1,NA,This is a,1,These are both,NA,tree,warmup2
316,redwood,NA,8,warmup/bonsai.jpg,redwood|sequoia,This is a,no,2,trees,patricia,bonsai,NA,Please label the pictures below.,NA,NA,39,NA,nice survey,warmup/sequoia.jpg,trees,graduated_college,english,male,NA,trees,NA,1,1566414034271,2,NA,This is a,1,These are both,NA,bonsai,warmup2
316,flower,NA,8,warmup/sunflower.png,dandelion,This is a,no,2,flowers,patricia,sunflower,NA,Please label the pictures below.,NA,NA,39,NA,nice survey,warmup/dandelion.jpg,flower,graduated_college,english,male,NA,flowers,NA,2,1566414034271,1,NA,This is a,1,These are both,NA,flower,warmup2
316,dandelion,NA,8,warmup/sunflower.png,dandelion,This is a,no,2,flowers,patricia,sunflower,NA,Please label the pictures below.,NA,NA,39,NA,nice survey,warmup/dandelion.jpg,flower,graduated_college,english,male,NA,flowers,NA,2,1566414034271,2,NA,This is a,1,These are both,NA,sunflower,warmup2
316,dandelion,NA,8,warmup/sunflower.png,dandelion,This is a,no,2,flowers,patricia,sunflower,NA,Please label the pictures below.,NA,NA,39,NA,nice survey,warmup/dandelion.jpg,flower,graduated_college,english,male,NA,flowers,NA,2,1566414034271,3,NA,This is a,1,These are both,NA,sunflower,warmup2
316,dandelion,NA,8,warmup/sunflower.png,dandelion,This is a,no,2,flowers,patricia,sunflower,NA,Please label the pictures below.,NA,NA,39,NA,nice survey,warmup/dandelion.jpg,flowers,graduated_college,english,male,NA,flowers,NA,2,1566414034271,4,NA,This is a,1,These are both,NA,sunflower,warmup2
316,duck,NA,8,warmup/sparrow.jpg,goose,This is a,no,2,birds,patricia,sparrow,NA,Please label the pictures below.,NA,NA,39,NA,nice survey,warmup/goose.png,brds,graduated_college,english,male,NA,birds,NA,3,1566414034271,1,NA,This is a,1,These are both,NA,bird,warmup2
316,goose,NA,8,warmup/sparrow.jpg,goose,This is a,no,2,birds,patricia,sparrow,NA,Please label the pictures below.,NA,NA,39,NA,nice survey,warmup/goose.png,brds,graduated_college,english,male,NA,birds,NA,3,1566414034271,2,NA,This is a,1,These are both,NA,birdsparrow,warmup2
316,goose,NA,8,warmup/sparrow.jpg,goose,This is a,no,2,birds,patricia,sparrow,NA,Please label the pictures below.,NA,NA,39,NA,nice survey,warmup/goose.png,brds,graduated_college,english,male,NA,birds,NA,3,1566414034271,3,NA,This is a,1,These are both,NA,sparrow,warmup2
316,goose,NA,8,warmup/sparrow.jpg,goose,This is a,no,2,birds,patricia,sparrow,NA,Please label the pictures below.,NA,NA,39,NA,nice survey,warmup/goose.png,birds,graduated_college,english,male,NA,birds,NA,3,1566414034271,4,NA,This is a,1,These are both,NA,sparrow,warmup2
316,NA,images/bird-parade.png,8,NA,NA,That,no,2,birds,patricia,NA,NA,This one is also in the parade.,predicative,You say to your friend:,39,goose,nice survey,NA,NA,graduated_college,english,male,NA,NA,You see a parade of animals.,1,1566414034271,NA,images/goose.png,NA,1,is big.,big,NA,main2
316,NA,images/flower-parade2.png,8,NA,NA,That,no,2,flowers,patricia,NA,NA,This one is also in the collection.,predicative,You say to your friend:,39,sunflower,nice survey,NA,NA,graduated_college,english,male,NA,NA,You see a collection of plants.,2,1566414034271,NA,images/sunflower.png,NA,1,is big.,big,NA,main2
316,NA,images/tree-parade.png,8,NA,NA,That,no,2,trees,patricia,NA,NA,This one is also in the landscape.,predicative,You say to your friend:,39,bonsai,nice survey,NA,NA,graduated_college,english,male,NA,NA,You see the following items in a landscape.,3,1566414034271,NA,images/bonsai.png,NA,1,is small.,small,NA,main2
315,hummingbird,NA,8,warmup/eagle.jpg,hummingbird,This is a,no,1,birds,Elizabeth,eagle,yes,Please label the pictures below.,NA,NA,32,NA,"I can't spell, sorry...I'm dyslexic",warmup/colibri.jpg,birds,some_college,English,female,NA,birds,NA,1,1566414117838,1,NA,This is an,1,These are both,NA,bald eagle,warmup1
315,hummingbird,NA,8,warmup/eagle.jpg,hummingbird,This is a,no,1,birds,Elizabeth,eagle,yes,Please label the pictures below.,NA,NA,32,NA,"I can't spell, sorry...I'm dyslexic",warmup/colibri.jpg,birds,some_college,English,female,NA,birds,NA,1,1566414117838,2,NA,This is an,1,These are both,NA,eagle,warmup1
315,tuna,NA,8,warmup/clownfish.jpg,tuna,This is a,no,1,fish,Elizabeth,clownfish,yes,Please label the pictures below.,NA,NA,32,NA,"I can't spell, sorry...I'm dyslexic",warmup/tuna.jpg,fish,some_college,English,female,NA,fish,NA,2,1566414117838,1,NA,This is a,1,These are both,NA,clownfish,warmup1
315,daisy,NA,8,warmup/peony.png,daisy,This is a,no,1,flowers,Elizabeth,peony,yes,Please label the pictures below.,NA,NA,32,NA,"I can't spell, sorry...I'm dyslexic",warmup/daisy.png,flowers,some_college,English,female,NA,flowers,NA,3,1566414117838,1,NA,This is a,1,These are both,NA,rose,warmup1
315,daisy,NA,8,warmup/peony.png,daisy,This is a,no,1,flowers,Elizabeth,peony,yes,Please label the pictures below.,NA,NA,32,NA,"I can't spell, sorry...I'm dyslexic",warmup/daisy.png,flowers,some_college,English,female,NA,flowers,NA,3,1566414117838,2,NA,This is a,1,These are both,NA,peony,warmup1
315,NA,images/fish-parade2.png,8,NA,NA,That,no,1,fish,Elizabeth,NA,yes,This one is also in the parade.,predicative,You say to your friend:,32,clownfish,"I can't spell, sorry...I'm dyslexic",NA,NA,some_college,English,female,NA,NA,You see a parade of animals.,1,1566414117838,NA,images/clownfish.png,NA,1,is small.,small,NA,main1
315,NA,images/bird-parade2.png,8,NA,NA,That,no,1,birds,Elizabeth,NA,yes,This one is also in the parade.,predicative,You say to your friend:,32,eagle,"I can't spell, sorry...I'm dyslexic",NA,NA,some_college,English,female,NA,NA,You see a parade of animals.,2,1566414117838,NA,images/eagle.png,NA,1,is big.,big,NA,main1
315,NA,images/flower-parade.png,8,NA,NA,That,no,1,flowers,Elizabeth,NA,yes,This one is also in the collection.,predicative,You say to your friend:,32,peony,"I can't spell, sorry...I'm dyslexic",NA,NA,some_college,English,female,NA,NA,You see a collection of plants.,3,1566414117838,NA,images/peony.png,NA,1,is big.,big,NA,main1
315,swan,NA,8,warmup/canary.jpg,swan,This is a,no,1,birds,Elizabeth,canary,yes,Please label the pictures below.,NA,NA,32,NA,"I can't spell, sorry...I'm dyslexic",warmup/swan.jpg,birds,some_college,English,female,NA,birds,NA,1,1566414117838,1,NA,This is a,1,These are both,NA,parakeet,warmup2
315,swan,NA,8,warmup/canary.jpg,swan,This is a,no,1,birds,Elizabeth,canary,yes,Please label the pictures below.,NA,NA,32,NA,"I can't spell, sorry...I'm dyslexic",warmup/swan.jpg,birds,some_college,English,female,NA,birds,NA,1,1566414117838,2,NA,This is a,1,These are both,NA,canary,warmup2
315,chiaha,NA,8,warmup/doberman.png,chihuahua,This is a,no,1,dogs,Elizabeth,doberman,yes,Please label the pictures below.,NA,NA,32,NA,"I can't spell, sorry...I'm dyslexic",warmup/chihuahua.jpg,dogs,some_college,English,female,NA,dogs,NA,2,1566414117838,1,NA,This is a,1,These are both,NA,doberman,warmup2
315,chihuahua,NA,8,warmup/doberman.png,chihuahua,This is a,no,1,dogs,Elizabeth,doberman,yes,Please label the pictures below.,NA,NA,32,NA,"I can't spell, sorry...I'm dyslexic",warmup/chihuahua.jpg,dogs,some_college,English,female,NA,dogs,NA,2,1566414117838,2,NA,This is a,1,These are both,NA,doberman,warmup2
315,Marlin,NA,8,warmup/goldfish.png,swordfish,This is a,no,1,fish,Elizabeth,goldfish,yes,Please label the pictures below.,NA,NA,32,NA,"I can't spell, sorry...I'm dyslexic",warmup/swordfish.jpg,fish,some_college,English,female,NA,fish,NA,3,1566414117838,1,NA,This is a,1,These are both,NA,goldfish,warmup2
315,swordfish,NA,8,warmup/goldfish.png,swordfish,This is a,no,1,fish,Elizabeth,goldfish,yes,Please label the pictures below.,NA,NA,32,NA,"I can't spell, sorry...I'm dyslexic",warmup/swordfish.jpg,fish,some_college,English,female,NA,fish,NA,3,1566414117838,2,NA,This is a,1,These are both,NA,goldfish,warmup2
315,NA,images/dog-parade.png,8,NA,NA,That,no,1,dogs,Elizabeth,NA,yes,This one is also in the parade.,predicative,You say to your friend:,32,doberman,"I can't spell, sorry...I'm dyslexic",NA,NA,some_college,English,female,NA,NA,You see a parade of animals.,1,1566414117838,NA,images/doberman.png,NA,1,is big.,big,NA,main2
315,NA,images/fish-parade.png,8,NA,NA,That,no,1,fish,Elizabeth,NA,yes,This one is also in the parade.,predicative,You say to your friend:,32,goldfish,"I can't spell, sorry...I'm dyslexic",NA,NA,some_college,English,female,NA,NA,You see a parade of animals.,2,1566414117838,NA,images/goldfish.png,NA,1,is small.,small,NA,main2
315,NA,images/bird-parade3.png,8,NA,NA,That,no,1,birds,Elizabeth,NA,yes,This one is also in the parade.,predicative,You say to your friend:,32,canary,"I can't spell, sorry...I'm dyslexic",NA,NA,some_college,English,female,NA,NA,You see a parade of animals.,3,1566414117838,NA,images/canary.png,NA,1,is small.,small,NA,main2
314,dog,NA,8,warmup/great-dane.jpg,pug,This is a,NA,1,dogs,susan,great dane,yes,Please label the pictures below.,NA,NA,36,NA,NA,warmup/pug.jpg,dogs,graduated_college,English,male,NA,dogs,NA,1,1566414078166,1,NA,This is a,1,These are both,NA,dog,warmup1
314,pug,NA,8,warmup/great-dane.jpg,pug,This is a,NA,1,dogs,susan,great dane,yes,Please label the pictures below.,NA,NA,36,NA,NA,warmup/pug.jpg,dogs,graduated_college,English,male,NA,dogs,NA,1,1566414078166,2,NA,This is a,1,These are both,NA,great dane,warmup1
314,swan,NA,8,warmup/canary.jpg,swan,This is a,NA,1,birds,susan,canary,yes,Please label the pictures below.,NA,NA,36,NA,NA,warmup/swan.jpg,birds,graduated_college,English,male,NA,birds,NA,2,1566414078166,1,NA,This is a,1,These are both,NA,canary,warmup1
314,redwood,NA,8,warmup/bonsai.jpg,redwood|sequoia,This is a,NA,1,trees,susan,bonsai,yes,Please label the pictures below.,NA,NA,36,NA,NA,warmup/sequoia.jpg,trees,graduated_college,English,male,NA,trees,NA,3,1566414078166,1,NA,This is a,1,These are both,NA,bonsai,warmup1
314,NA,images/dog-parade2.png,8,NA,NA,That,NA,1,dogs,susan,NA,yes,This one is also in the parade.,predicative,You say to your friend:,36,dog,NA,NA,NA,graduated_college,English,male,NA,NA,You see a parade of animals.,1,1566414078166,NA,images/pug.png,NA,1,is small.,small,NA,main1
314,NA,images/bird-parade3.png,8,NA,NA,That,NA,1,birds,susan,NA,yes,This one is also in the parade.,predicative,You say to your friend:,36,bird,NA,NA,NA,graduated_college,English,male,NA,NA,You see a parade of animals.,2,1566414078166,NA,images/canary.png,NA,1,is small.,small,NA,main1
314,NA,images/tree-parade.png,8,NA,NA,That,NA,1,trees,susan,NA,yes,This one is also in the landscape.,predicative,You say to your friend:,36,tree,NA,NA,NA,graduated_college,English,male,NA,NA,You see the following items in a landscape.,3,1566414078166,NA,images/sequoia.png,NA,1,is big.,big,NA,main1
314,dandilion,NA,8,warmup/sunflower.png,dandelion,This is a,NA,1,flowers,susan,sunflower,yes,Please label the pictures below.,NA,NA,36,NA,NA,warmup/dandelion.jpg,flowers,graduated_college,English,male,NA,flowers,NA,1,1566414078166,1,NA,This is a,1,These are both,NA,sunflower,warmup2
314,dandelion,NA,8,warmup/sunflower.png,dandelion,This is a,NA,1,flowers,susan,sunflower,yes,Please label the pictures below.,NA,NA,36,NA,NA,warmup/dandelion.jpg,flowers,graduated_college,English,male,NA,flowers,NA,1,1566414078166,2,NA,This is a,1,These are both,NA,sunflower,warmup2
314,tuna,NA,8,warmup/clownfish.jpg,tuna,This is a,NA,1,fish,susan,clownfish,yes,Please label the pictures below.,NA,NA,36,NA,NA,warmup/tuna.jpg,fish,graduated_college,English,male,NA,fish,NA,2,1566414078166,1,NA,This is a,1,These are both,NA,clownfish,warmup2
314,goose,NA,8,warmup/sparrow.jpg,goose,This is a,NA,1,birds,susan,sparrow,yes,Please label the pictures below.,NA,NA,36,NA,NA,warmup/goose.png,birds,graduated_college,English,male,NA,birds,NA,3,1566414078166,1,NA,This is a,1,These are both,NA,finch,warmup2
314,goose,NA,8,warmup/sparrow.jpg,goose,This is a,NA,1,birds,susan,sparrow,yes,Please label the pictures below.,NA,NA,36,NA,NA,warmup/goose.png,birds,graduated_college,English,male,NA,birds,NA,3,1566414078166,2,NA,This is a,1,These are both,NA,sparrow,warmup2
314,NA,images/flower-parade2.png,8,NA,NA,That,NA,1,flowers,susan,NA,yes,This one is also in the collection.,predicative,You say to your friend:,36,flower,NA,NA,NA,graduated_college,English,male,NA,NA,You see a collection of plants.,1,1566414078166,NA,images/dandelion.png,NA,1,is small.,small,NA,main2
314,NA,images/fish-parade2.png,8,NA,NA,That,NA,1,fish,susan,NA,yes,This one is also in the parade.,predicative,You say to your friend:,36,fish,NA,NA,NA,graduated_college,English,male,NA,NA,You see a parade of animals.,2,1566414078166,NA,images/tuna.png,NA,1,is big.,big,NA,main2
314,NA,images/bird-parade.png,8,NA,NA,That,NA,1,birds,susan,NA,yes,This one is also in the parade.,predicative,You say to your friend:,36,bird,NA,NA,NA,graduated_college,English,male,NA,NA,You see a parade of animals.,3,1566414078166,NA,images/goose.png,NA,1,is big.,big,NA,main2
312,duck,NA,8,warmup/canary.jpg,swan,This is a,No,1,birds,Jennifer,canary,yes,Please label the pictures below.,NA,NA,22,NA,None,warmup/swan.jpg,bird,graduated_college,English,female,NA,birds,NA,1,1566413825094,1,NA,This is a,2,These are both,NA,bird,warmup1
312,duck,NA,8,warmup/canary.jpg,swan,This is a,No,1,birds,Jennifer,canary,yes,Please label the pictures below.,NA,NA,22,NA,None,warmup/swan.jpg,birds,graduated_college,English,female,NA,birds,NA,1,1566413825094,2,NA,This is a,2,These are both,NA,bird,warmup1
312,swan,NA,8,warmup/canary.jpg,swan,This is a,No,1,birds,Jennifer,canary,yes,Please label the pictures below.,NA,NA,22,NA,None,warmup/swan.jpg,birds,graduated_college,English,female,NA,birds,NA,1,1566413825094,3,NA,This is a,2,These are both,NA,canary,warmup1
312,swan,NA,8,warmup/sparrow.jpg,goose,This is a,No,1,birds,Jennifer,sparrow,yes,Please label the pictures below.,NA,NA,22,NA,None,warmup/goose.png,birds,graduated_college,English,female,NA,birds,NA,2,1566413825094,1,NA,This is a,2,These are both,NA,bird,warmup1
312,goose,NA,8,warmup/sparrow.jpg,goose,This is a,No,1,birds,Jennifer,sparrow,yes,Please label the pictures below.,NA,NA,22,NA,None,warmup/goose.png,birds,graduated_college,English,female,NA,birds,NA,2,1566413825094,2,NA,This is a,2,These are both,NA,sparrow,warmup1
312,sunflower,NA,8,warmup/peony.png,daisy,This is a,No,1,flowers,Jennifer,peony,yes,Please label the pictures below.,NA,NA,22,NA,None,warmup/daisy.png,flowers,graduated_college,English,female,NA,flowers,NA,3,1566413825094,1,NA,This is a,2,These are both,NA,rose flower,warmup1
312,daisy,NA,8,warmup/peony.png,daisy,This is a,No,1,flowers,Jennifer,peony,yes,Please label the pictures below.,NA,NA,22,NA,None,warmup/daisy.png,flowers,graduated_college,English,female,NA,flowers,NA,3,1566413825094,2,NA,This is a,2,These are both,NA,peony,warmup1
312,NA,images/bird-parade.png,8,NA,NA,That,No,1,birds,Jennifer,NA,yes,This one is also in the parade.,predicative,You say to your friend:,22,goose,None,NA,NA,graduated_college,English,female,NA,NA,You see a parade of animals.,1,1566413825094,NA,images/goose.png,NA,2,is big.,big,NA,main1
312,NA,images/bird-parade3.png,8,NA,NA,That,No,1,birds,Jennifer,NA,yes,This one is also in the parade.,predicative,You say to your friend:,22,swan,None,NA,NA,graduated_college,English,female,NA,NA,You see a parade of animals.,2,1566413825094,NA,images/swan.png,NA,2,is big.,big,NA,main1
312,NA,images/flower-parade.png,8,NA,NA,That,No,1,flowers,Jennifer,NA,yes,This one is also in the collection.,predicative,You say to your friend:,22,daisy,None,NA,NA,graduated_college,English,female,NA,NA,You see a collection of plants.,3,1566413825094,NA,images/daisy.png,NA,2,is small.,small,NA,main1
312,mackerel,NA,8,warmup/clownfish.jpg,tuna,This is a,No,1,fish,Jennifer,clownfish,yes,Please label the pictures below.,NA,NA,22,NA,None,warmup/tuna.jpg,fish,graduated_college,English,female,NA,fish,NA,1,1566413825094,1,NA,This is a,2,These are both,NA,tilapia,warmup2
312,tuna,NA,8,warmup/clownfish.jpg,tuna,This is a,No,1,fish,Jennifer,clownfish,yes,Please label the pictures below.,NA,NA,22,NA,None,warmup/tuna.jpg,fish,graduated_college,English,female,NA,fish,NA,1,1566413825094,2,NA,This is a,2,These are both,NA,clownfish,warmup2
312,dog,NA,8,warmup/doberman.png,chihuahua,This is a,No,1,dogs,Jennifer,doberman,yes,Please label the pictures below.,NA,NA,22,NA,None,warmup/chihuahua.jpg,dog,graduated_college,English,female,NA,dogs,NA,2,1566413825094,1,NA,This is a,2,These are both,NA,german shepherd,warmup2
312,chihuahua,NA,8,warmup/doberman.png,chihuahua,This is a,No,1,dogs,Jennifer,doberman,yes,Please label the pictures below.,NA,NA,22,NA,None,warmup/chihuahua.jpg,dogs,graduated_college,English,female,NA,dogs,NA,2,1566413825094,2,NA,This is a,2,These are both,NA,doberman,warmup2
312,shark,NA,8,warmup/goldfish.png,swordfish,This is a,No,1,fish,Jennifer,goldfish,yes,Please label the pictures below.,NA,NA,22,NA,None,warmup/swordfish.jpg,fish,graduated_college,English,female,NA,fish,NA,3,1566413825094,1,NA,This is a,2,These are both,NA,tilapia,warmup2
312,swordfish,NA,8,warmup/goldfish.png,swordfish,This is a,No,1,fish,Jennifer,goldfish,yes,Please label the pictures below.,NA,NA,22,NA,None,warmup/swordfish.jpg,fish,graduated_college,English,female,NA,fish,NA,3,1566413825094,2,NA,This is a,2,These are both,NA,goldfish,warmup2
312,NA,images/dog-parade.png,8,NA,NA,That,No,1,dogs,Jennifer,NA,yes,This one is also in the parade.,predicative,You say to your friend:,22,chihuahua,None,NA,NA,graduated_college,English,female,NA,NA,You see a parade of animals.,1,1566413825094,NA,images/chihuahua.png,NA,2,is small.,small,NA,main2
312,NA,images/fish-parade2.png,8,NA,NA,That,No,1,fish,Jennifer,NA,yes,This one is also in the parade.,predicative,You say to your friend:,22,swordfish,None,NA,NA,graduated_college,English,female,NA,NA,You see a parade of animals.,2,1566413825094,NA,images/tuna.png,NA,2,is big.,big,NA,main2
312,NA,images/fish-parade.png,8,NA,NA,That,No,1,fish,Jennifer,NA,yes,This one is also in the parade.,predicative,You say to your friend:,22,goldfish,None,NA,NA,graduated_college,English,female,NA,NA,You see a parade of animals.,3,1566413825094,NA,images/goldfish.png,NA,2,is small.,small,NA,main2
304,tree,NA,8,warmup/bonsai.jpg,redwood|sequoia,This is a,none,1,trees,barbara,bonsai,NA,Please label the pictures below.,NA,NA,28,NA,none,warmup/sequoia.jpg,plants,graduated_college,english,male,NA,trees,NA,1,1566413431027,1,NA,This is a,1,These are both,NA,plant,warmup1
304,redwood,NA,8,warmup/bonsai.jpg,redwood|sequoia,This is a,none,1,trees,barbara,bonsai,NA,Please label the pictures below.,NA,NA,28,NA,none,warmup/sequoia.jpg,trees,graduated_college,english,male,NA,trees,NA,1,1566413431027,2,NA,This is a,1,These are both,NA,bonsai,warmup1
304,swan,NA,8,warmup/canary.jpg,swan,This is a,none,1,birds,barbara,canary,NA,Please label the pictures below.,NA,NA,28,NA,none,warmup/swan.jpg,birds,graduated_college,english,male,NA,birds,NA,2,1566413431027,1,NA,This is a,1,These are both,NA,bird,warmup1
304,swan,NA,8,warmup/canary.jpg,swan,This is a,none,1,birds,barbara,canary,NA,Please label the pictures below.,NA,NA,28,NA,none,warmup/swan.jpg,birds,graduated_college,english,male,NA,birds,NA,2,1566413431027,2,NA,This is a,1,These are both,NA,canary,warmup1
304,tuna,NA,8,warmup/clownfish.jpg,tuna,This is a,none,1,fish,barbara,clownfish,NA,Please label the pictures below.,NA,NA,28,NA,none,warmup/tuna.jpg,fish,graduated_college,english,male,NA,fish,NA,3,1566413431027,1,NA,This is a,1,These are both,NA,clownfish,warmup1
304,NA,images/bird-parade3.png,8,NA,NA,That,none,1,birds,barbara,NA,NA,This one is also in the parade.,predicative,You say to your friend:,28,swan,none,NA,NA,graduated_college,english,male,NA,NA,You see a parade of animals.,1,1566413431027,NA,images/swan.png,NA,1,is big.,big,NA,main1
304,NA,images/tree-parade.png,8,NA,NA,That,none,1,trees,barbara,NA,NA,This one is also in the landscape.,predicative,You say to your friend:,28,redwood,none,NA,NA,graduated_college,english,male,NA,NA,You see the following items in a landscape.,2,1566413431027,NA,images/sequoia.png,NA,1,is big.,big,NA,main1
304,NA,images/fish-parade2.png,8,NA,NA,That,none,1,fish,barbara,NA,NA,This one is also in the parade.,predicative,You say to your friend:,28,tuna,none,NA,NA,graduated_college,english,male,NA,NA,You see a parade of animals.,3,1566413431027,NA,images/tuna.png,NA,1,is big.,big,NA,main1
304,plant,NA,8,warmup/peony.png,daisy,This is a,none,1,flowers,barbara,peony,NA,Please label the pictures below.,NA,NA,28,NA,none,warmup/daisy.png,flowers,graduated_college,english,male,NA,flowers,NA,1,1566413431027,1,NA,This is a,1,These are both,NA,rose,warmup2
304,daisy,NA,8,warmup/peony.png,daisy,This is a,none,1,flowers,barbara,peony,NA,Please label the pictures below.,NA,NA,28,NA,none,warmup/daisy.png,flowers,graduated_college,english,male,NA,flowers,NA,1,1566413431027,2,NA,This is a,1,These are both,NA,peony,warmup2
304,goose,NA,8,warmup/sparrow.jpg,goose,This is a,none,1,birds,barbara,sparrow,NA,Please label the pictures below.,NA,NA,28,NA,none,warmup/goose.png,bird,graduated_college,english,male,NA,birds,NA,2,1566413431027,1,NA,This is a,1,These are both,NA,bird,warmup2
304,goose,NA,8,warmup/sparrow.jpg,goose,This is a,none,1,birds,barbara,sparrow,NA,Please label the pictures below.,NA,NA,28,NA,none,warmup/goose.png,birds,graduated_college,english,male,NA,birds,NA,2,1566413431027,2,NA,This is a,1,These are both,NA,sparrow,warmup2
304,shark,NA,8,warmup/goldfish.png,swordfish,This is a,none,1,fish,barbara,goldfish,NA,Please label the pictures below.,NA,NA,28,NA,none,warmup/swordfish.jpg,animals,graduated_college,english,male,NA,fish,NA,3,1566413431027,1,NA,This is a,1,These are both,NA,fish,warmup2
304,swordfish,NA,8,warmup/goldfish.png,swordfish,This is a,none,1,fish,barbara,goldfish,NA,Please label the pictures below.,NA,NA,28,NA,none,warmup/swordfish.jpg,fish,graduated_college,english,male,NA,fish,NA,3,1566413431027,2,NA,This is a,1,These are both,NA,goldfish,warmup2
304,NA,images/flower-parade.png,8,NA,NA,That,none,1,flowers,barbara,NA,NA,This one is also in the collection.,predicative,You say to your friend:,28,one plant,none,NA,NA,graduated_college,english,male,NA,NA,You see a collection of plants.,1,1566413431027,NA,images/daisy.png,NA,1,is small.,small,NA,main2
304,NA,images/fish-parade.png,8,NA,NA,That,none,1,fish,barbara,NA,NA,This one is also in the parade.,predicative,You say to your friend:,28,clownfish,none,NA,NA,graduated_college,english,male,NA,NA,You see a parade of animals.,2,1566413431027,NA,images/goldfish.png,NA,1,is small.,small,NA,main2
304,NA,images/bird-parade.png,8,NA,NA,That,none,1,birds,barbara,NA,NA,This one is also in the parade.,predicative,You say to your friend:,28,sparrow,none,NA,NA,graduated_college,english,male,NA,NA,You see a parade of animals.,3,1566413431027,NA,images/sparrow.png,NA,1,is small.,small,NA,main2
303,silver fish,NA,8,warmup/clownfish.jpg,tuna,This is a,No,1,fish,patricia,clownfish,yes,Please label the pictures below.,NA,NA,31,NA,NA,warmup/tuna.jpg,fish,some_college,English,female,NA,fish,NA,1,1566413356283,1,NA,This is a,1.5,These are both,NA,red fish,warmup1
303,tuna,NA,8,warmup/clownfish.jpg,tuna,This is a,No,1,fish,patricia,clownfish,yes,Please label the pictures below.,NA,NA,31,NA,NA,warmup/tuna.jpg,fish,some_college,English,female,NA,fish,NA,1,1566413356283,2,NA,This is a,1.5,These are both,NA,clownfish,warmup1
303,daisy,NA,8,warmup/peony.png,daisy,This is a,No,1,flowers,patricia,peony,yes,Please label the pictures below.,NA,NA,31,NA,NA,warmup/daisy.png,flowers,some_college,English,female,NA,flowers,NA,2,1566413356283,1,NA,This is a,1.5,These are both,NA,peony,warmup1
303,redwood,NA,8,warmup/bonsai.jpg,redwood|sequoia,This is a,No,1,trees,patricia,bonsai,yes,Please label the pictures below.,NA,NA,31,NA,NA,warmup/sequoia.jpg,trees,some_college,English,female,NA,trees,NA,3,1566413356283,1,NA,This is a,1.5,These are both,NA,bonsai,warmup1
303,NA,images/tree-parade.png,8,NA,NA,That,No,1,trees,patricia,NA,yes,This one is also in the landscape.,predicative,You say to your friend:,31,tree,NA,NA,NA,some_college,English,female,NA,NA,You see the following items in a landscape.,1,1566413356283,NA,images/sequoia.png,NA,1.5,is big.,big,NA,main1
303,NA,images/flower-parade.png,8,NA,NA,That,No,1,flowers,patricia,NA,yes,This one is also in the collection.,predicative,You say to your friend:,31,flower,NA,NA,NA,some_college,English,female,NA,NA,You see a collection of plants.,2,1566413356283,NA,images/peony.png,NA,1.5,is big.,big,NA,main1
303,NA,images/fish-parade2.png,8,NA,NA,That,No,1,fish,patricia,NA,yes,This one is also in the parade.,predicative,You say to your friend:,31,fish,NA,NA,NA,some_college,English,female,NA,NA,You see a parade of animals.,3,1566413356283,NA,images/clownfish.png,NA,1.5,is small.,small,NA,main1
303,pug,NA,8,warmup/great-dane.jpg,pug,This is a,No,1,dogs,patricia,great dane,yes,Please label the pictures below.,NA,NA,31,NA,NA,warmup/pug.jpg,dogs,some_college,English,female,NA,dogs,NA,1,1566413356283,1,NA,This is a,1.5,These are both,NA,labrador,warmup2
303,pug,NA,8,warmup/great-dane.jpg,pug,This is a,No,1,dogs,patricia,great dane,yes,Please label the pictures below.,NA,NA,31,NA,NA,warmup/pug.jpg,dogs,some_college,English,female,NA,dogs,NA,1,1566413356283,2,NA,This is a,1.5,These are both,NA,great dane,warmup2
303,goose,NA,8,warmup/sparrow.jpg,goose,This is a,No,1,birds,patricia,sparrow,yes,Please label the pictures below.,NA,NA,31,NA,NA,warmup/goose.png,birds,some_college,English,female,NA,birds,NA,2,1566413356283,1,NA,This is a,1.5,These are both,NA,finch,warmup2
303,goose,NA,8,warmup/sparrow.jpg,goose,This is a,No,1,birds,patricia,sparrow,yes,Please label the pictures below.,NA,NA,31,NA,NA,warmup/goose.png,birds,some_college,English,female,NA,birds,NA,2,1566413356283,2,NA,This is a,1.5,These are both,NA,sparrow,warmup2
303,swordfish,NA,8,warmup/goldfish.png,swordfish,This is a,No,1,fish,patricia,goldfish,yes,Please label the pictures below.,NA,NA,31,NA,NA,warmup/swordfish.jpg,fish,some_college,English,female,NA,fish,NA,3,1566413356283,1,NA,This is a,1.5,These are both,NA,goldfish,warmup2
303,NA,images/fish-parade.png,8,NA,NA,That,No,1,fish,patricia,NA,yes,This one is also in the parade.,predicative,You say to your friend:,31,right swordfish,NA,NA,NA,some_college,English,female,NA,NA,You see a parade of animals.,1,1566413356283,NA,images/swordfish.png,NA,1.5,is big.,big,NA,main2
303,NA,images/bird-parade.png,8,NA,NA,That,No,1,birds,patricia,NA,yes,This one is also in the parade.,predicative,You say to your friend:,31,one sparrow,NA,NA,NA,some_college,English,female,NA,NA,You see a parade of animals.,2,1566413356283,NA,images/sparrow.png,NA,1.5,is small.,small,NA,main2
303,NA,images/dog-parade2.png,8,NA,NA,That,No,1,dogs,patricia,NA,yes,This one is also in the parade.,predicative,You say to your friend:,31,light pug,NA,NA,NA,some_college,English,female,NA,NA,You see a parade of animals.,3,1566413356283,NA,images/pug.png,NA,1.5,is small.,small,NA,main2
302,tree,NA,8,warmup/bonsai.jpg,redwood|sequoia,This is a,no,1,trees,Barbara,bonsai,yes,Please label the pictures below.,NA,NA,42,NA,NA,warmup/sequoia.jpg,plants,graduated_high_school,English,male,NA,trees,NA,1,1566413481103,1,NA,This is a,1,These are both,NA,seedling,warmup1
302,redwood,NA,8,warmup/bonsai.jpg,redwood|sequoia,This is a,no,1,trees,Barbara,bonsai,yes,Please label the pictures below.,NA,NA,42,NA,NA,warmup/sequoia.jpg,trees,graduated_high_school,English,male,NA,trees,NA,1,1566413481103,2,NA,This is a,1,These are both,NA,bonsai,warmup1
302,humming bird,NA,8,warmup/eagle.jpg,hummingbird,This is a,no,1,birds,Barbara,eagle,yes,Please label the pictures below.,NA,NA,42,NA,NA,warmup/colibri.jpg,birds,graduated_high_school,English,male,NA,birds,NA,2,1566413481103,1,NA,This is an,1,These are both,NA,eagle,warmup1
302,hummingbird,NA,8,warmup/eagle.jpg,hummingbird,This is a,no,1,birds,Barbara,eagle,yes,Please label the pictures below.,NA,NA,42,NA,NA,warmup/colibri.jpg,birds,graduated_high_school,English,male,NA,birds,NA,2,1566413481103,2,NA,This is an,1,These are both,NA,eagle,warmup1
302,goose,NA,8,warmup/sparrow.jpg,goose,This is a,no,1,birds,Barbara,sparrow,yes,Please label the pictures below.,NA,NA,42,NA,NA,warmup/goose.png,birds,graduated_high_school,English,male,NA,birds,NA,3,1566413481103,1,NA,This is a,1,These are both,NA,finch,warmup1
302,goose,NA,8,warmup/sparrow.jpg,goose,This is a,no,1,birds,Barbara,sparrow,yes,Please label the pictures below.,NA,NA,42,NA,NA,warmup/goose.png,birds,graduated_high_school,English,male,NA,birds,NA,3,1566413481103,2,NA,This is a,1,These are both,NA,sparrow,warmup1
302,NA,images/bird-parade.png,8,NA,NA,That,no,1,birds,Barbara,NA,yes,This one is also in the parade.,predicative,You say to your friend:,42,bird,NA,NA,NA,graduated_high_school,English,male,NA,NA,You see a parade of animals.,1,1566413481103,NA,images/sparrow.png,NA,1,is small.,small,NA,main1
302,NA,images/bird-parade2.png,8,NA,NA,That,no,1,birds,Barbara,NA,yes,This one is also in the parade.,predicative,You say to your friend:,42,eagle,NA,NA,NA,graduated_high_school,English,male,NA,NA,You see a parade of animals.,2,1566413481103,NA,images/eagle.png,NA,1,is big.,big,NA,main1
302,NA,images/tree-parade.png,8,NA,NA,That,no,1,trees,Barbara,NA,yes,This one is also in the landscape.,predicative,You say to your friend:,42,redwood,NA,NA,NA,graduated_high_school,English,male,NA,NA,You see the following items in a landscape.,3,1566413481103,NA,images/sequoia.png,NA,1,is big.,big,NA,main1
302,dandelion,NA,8,warmup/sunflower.png,dandelion,This is a,no,1,flowers,Barbara,sunflower,yes,Please label the pictures below.,NA,NA,42,NA,NA,warmup/dandelion.jpg,flowers,graduated_high_school,English,male,NA,flowers,NA,1,1566413481103,1,NA,This is a,1,These are both,NA,sunflower,warmup2
302,tuna,NA,8,warmup/clownfish.jpg,tuna,This is a,no,1,fish,Barbara,clownfish,yes,Please label the pictures below.,NA,NA,42,NA,NA,warmup/tuna.jpg,fish,graduated_high_school,English,male,NA,fish,NA,2,1566413481103,1,NA,This is a,1,These are both,NA,clownfish,warmup2
302,Chihuahua,NA,8,warmup/doberman.png,chihuahua,This is a,no,1,dogs,Barbara,doberman,yes,Please label the pictures below.,NA,NA,42,NA,NA,warmup/chihuahua.jpg,dogs,graduated_high_school,English,male,NA,dogs,NA,3,1566413481103,1,NA,This is a,1,These are both,NA,doberman,warmup2
302,NA,images/dog-parade.png,8,NA,NA,That,no,1,dogs,Barbara,NA,yes,This one is also in the parade.,predicative,You say to your friend:,42,Chihuahua,NA,NA,NA,graduated_high_school,English,male,NA,NA,You see a parade of animals.,1,1566413481103,NA,images/chihuahua.png,NA,1,is small.,small,NA,main2
302,NA,images/fish-parade2.png,8,NA,NA,That,no,1,fish,Barbara,NA,yes,This one is also in the parade.,predicative,You say to your friend:,42,tuna,NA,NA,NA,graduated_high_school,English,male,NA,NA,You see a parade of animals.,2,1566413481103,NA,images/tuna.png,NA,1,is big.,big,NA,main2
302,NA,images/flower-parade2.png,8,NA,NA,That,no,1,flowers,Barbara,NA,yes,This one is also in the collection.,predicative,You say to your friend:,42,dandelion,NA,NA,NA,graduated_high_school,English,male,NA,NA,You see a collection of plants.,3,1566413481103,NA,images/dandelion.png,NA,1,is small.,small,NA,main2
301,swan,NA,8,warmup/canary.jpg,swan,This is a,none,2,birds,jennifer,canary,yes,Please label the pictures below.,NA,NA,60,NA,thank you!,warmup/swan.jpg,birds,NA,English,female,NA,birds,NA,1,1566413178620,1,NA,This is a,1.25,These are both,NA,parakeet,warmup1
301,swan,NA,8,warmup/canary.jpg,swan,This is a,none,2,birds,jennifer,canary,yes,Please label the pictures below.,NA,NA,60,NA,thank you!,warmup/swan.jpg,birds,NA,English,female,NA,birds,NA,1,1566413178620,2,NA,This is a,1.25,These are both,NA,canary,warmup1
301,shark,NA,8,warmup/goldfish.png,swordfish,This is a,none,2,fish,jennifer,goldfish,yes,Please label the pictures below.,NA,NA,60,NA,thank you!,warmup/swordfish.jpg,fish,NA,English,female,NA,fish,NA,2,1566413178620,1,NA,This is a,1.25,These are both,NA,gold fish,warmup1
301,swordfish,NA,8,warmup/goldfish.png,swordfish,This is a,none,2,fish,jennifer,goldfish,yes,Please label the pictures below.,NA,NA,60,NA,thank you!,warmup/swordfish.jpg,fish,NA,English,female,NA,fish,NA,2,1566413178620,2,NA,This is a,1.25,These are both,NA,goldfish,warmup1
301,hummingbird,NA,8,warmup/eagle.jpg,hummingbird,This is a,none,2,birds,jennifer,eagle,yes,Please label the pictures below.,NA,NA,60,NA,thank you!,warmup/colibri.jpg,birds,NA,English,female,NA,birds,NA,3,1566413178620,1,NA,This is an,1.25,These are both,NA,eagle,warmup1
301,NA,images/fish-parade.png,8,NA,NA,That,none,2,fish,jennifer,NA,yes,This one is also in the parade.,predicative,You say to your friend:,60,swordfish,thank you!,NA,NA,NA,English,female,NA,NA,You see a parade of animals.,1,1566413178620,NA,images/swordfish.png,NA,1.25,is big.,big,NA,main1
301,NA,images/bird-parade3.png,8,NA,NA,That,none,2,birds,jennifer,NA,yes,This one is also in the parade.,predicative,You say to your friend:,60,swan,thank you!,NA,NA,NA,English,female,NA,NA,You see a parade of animals.,2,1566413178620,NA,images/swan.png,NA,1.25,is big.,big,NA,main1
301,NA,images/bird-parade2.png,8,NA,NA,That,none,2,birds,jennifer,NA,yes,This one is also in the parade.,predicative,You say to your friend:,60,eagle,thank you!,NA,NA,NA,English,female,NA,NA,You see a parade of animals.,3,1566413178620,NA,images/eagle.png,NA,1.25,is big.,big,NA,main1
301,goose,NA,8,warmup/sparrow.jpg,goose,This is a,none,2,birds,jennifer,sparrow,yes,Please label the pictures below.,NA,NA,60,NA,thank you!,warmup/goose.png,birds,NA,English,female,NA,birds,NA,1,1566413178620,1,NA,This is a,1.25,These are both,NA,sparrow,warmup2
301,salmon,NA,8,warmup/clownfish.jpg,tuna,This is a,none,2,fish,jennifer,clownfish,yes,Please label the pictures below.,NA,NA,60,NA,thank you!,warmup/tuna.jpg,fish,NA,English,female,NA,fish,NA,2,1566413178620,1,NA,This is a,1.25,These are both,NA,blowfish,warmup2
301,tuna,NA,8,warmup/clownfish.jpg,tuna,This is a,none,2,fish,jennifer,clownfish,yes,Please label the pictures below.,NA,NA,60,NA,thank you!,warmup/tuna.jpg,fish,NA,English,female,NA,fish,NA,2,1566413178620,2,NA,This is a,1.25,These are both,NA,clownfish,warmup2
301,pug,NA,8,warmup/great-dane.jpg,pug,This is a,none,2,dogs,jennifer,great dane,yes,Please label the pictures below.,NA,NA,60,NA,thank you!,warmup/pug.jpg,dogs,NA,English,female,NA,dogs,NA,3,1566413178620,1,NA,This is a,1.25,These are both,NA,setter,warmup2
301,pug,NA,8,warmup/great-dane.jpg,pug,This is a,none,2,dogs,jennifer,great dane,yes,Please label the pictures below.,NA,NA,60,NA,thank you!,warmup/pug.jpg,dogs,NA,English,female,NA,dogs,NA,3,1566413178620,2,NA,This is a,1.25,These are both,NA,great dane,warmup2
301,NA,images/dog-parade2.png,8,NA,NA,That,none,2,dogs,jennifer,NA,yes,This one is also in the parade.,predicative,You say to your friend:,60,pug,thank you!,NA,NA,NA,English,female,NA,NA,You see a parade of animals.,1,1566413178620,NA,images/pug.png,NA,1.25,is small.,small,NA,main2
301,NA,images/fish-parade2.png,8,NA,NA,That,none,2,fish,jennifer,NA,yes,This one is also in the parade.,predicative,You say to your friend:,60,clownfish,thank you!,NA,NA,NA,English,female,NA,NA,You see a parade of animals.,2,1566413178620,NA,images/clownfish.png,NA,1.25,is small.,small,NA,main2
301,NA,images/bird-parade.png,8,NA,NA,That,none,2,birds,jennifer,NA,yes,This one is also in the parade.,predicative,You say to your friend:,60,sparrow,thank you!,NA,NA,NA,English,female,NA,NA,You see a parade of animals.,3,1566413178620,NA,images/sparrow.png,NA,1.25,is small.,small,NA,main2
299,swordfish,NA,8,warmup/goldfish.png,swordfish,This is a,no,0,fish,linda,goldfish,yes,Please label the pictures below.,NA,NA,28,NA,NA,warmup/swordfish.jpg,fish,some_college,english,male,NA,fish,NA,1,1566413335164,1,NA,This is a,1,These are both,NA,goldfish,warmup1
299,dog,NA,8,warmup/great-dane.jpg,pug,This is a,no,0,dogs,linda,great dane,yes,Please label the pictures below.,NA,NA,28,NA,NA,warmup/pug.jpg,dog,some_college,english,male,NA,dogs,NA,2,1566413335164,1,NA,This is a,1,These are both,NA,dog,warmup1
299,dog,NA,8,warmup/great-dane.jpg,pug,This is a,no,0,dogs,linda,great dane,yes,Please label the pictures below.,NA,NA,28,NA,NA,warmup/pug.jpg,dogs,some_college,english,male,NA,dogs,NA,2,1566413335164,2,NA,This is a,1,These are both,NA,dog,warmup1
299,pug,NA,8,warmup/great-dane.jpg,pug,This is a,no,0,dogs,linda,great dane,yes,Please label the pictures below.,NA,NA,28,NA,NA,warmup/pug.jpg,dogs,some_college,english,male,NA,dogs,NA,2,1566413335164,3,NA,This is a,1,These are both,NA,greyhound,warmup1
299,pug,NA,8,warmup/great-dane.jpg,pug,This is a,no,0,dogs,linda,great dane,yes,Please label the pictures below.,NA,NA,28,NA,NA,warmup/pug.jpg,dogs,some_college,english,male,NA,dogs,NA,2,1566413335164,4,NA,This is a,1,These are both,NA,greyhound,warmup1
299,pug,NA,8,warmup/great-dane.jpg,pug,This is a,no,0,dogs,linda,great dane,yes,Please label the pictures below.,NA,NA,28,NA,NA,warmup/pug.jpg,dogs,some_college,english,male,NA,dogs,NA,2,1566413335164,5,NA,This is a,1,These are both,NA,greyhound,warmup1
299,pug,NA,8,warmup/great-dane.jpg,pug,This is a,no,0,dogs,linda,great dane,yes,Please label the pictures below.,NA,NA,28,NA,NA,warmup/pug.jpg,dogs,some_college,english,male,NA,dogs,NA,2,1566413335164,6,NA,This is a,1,These are both,NA,great dane,warmup1
299,mackeral,NA,8,warmup/clownfish.jpg,tuna,This is a,no,0,fish,linda,clownfish,yes,Please label the pictures below.,NA,NA,28,NA,NA,warmup/tuna.jpg,fish,some_college,english,male,NA,fish,NA,3,1566413335164,1,NA,This is a,1,These are both,NA,clownfish,warmup1
