submission_id,response1,size_adj,context_picture,experiment_id,picture2,correct1,question1,problems,enjoyment,item,botresponse,correct2,understand,text,condition,sentence,age,response,comments,picture1,response3,size_target,education,languages,sex,RT,correct3,context,trial_number,startTime,attempts,picture,fairprice,question2,response2,adj_cond,trial_name
100,dog,NA,NA,5,images/great-dane.jpg,chihuahua,This is a,no,2,dogs,mary,great dane,yes,Please label the pictures below.,NA,NA,26,NA,NA,images/chihuahua.jpg,dogs,NA,graduated_college,English,female,NA,dogs,NA,1,1564588385838,1,NA,1.1,These are both,dog,NA,warmup
100,chihuahua,NA,NA,5,images/great-dane.jpg,chihuahua,This is a,no,2,dogs,mary,great dane,yes,Please label the pictures below.,NA,NA,26,NA,NA,images/chihuahua.jpg,dogs,NA,graduated_college,English,female,NA,dogs,NA,1,1564588385838,2,NA,1.1,These are both,great dane,NA,warmup
100,swordfish,NA,NA,5,images/goldfish.png,swordfish,This is a,no,2,fish,mary,goldfish,yes,Please label the pictures below.,NA,NA,26,NA,NA,images/swordfish.jpg,fish,NA,graduated_college,English,female,NA,fish,NA,2,1564588385838,1,NA,1.1,These are both,goldfish,NA,warmup
100,monkey,NA,NA,5,images/gorilla.jpg,spider monkey,This is a,no,2,primates,mary,gorilla,yes,Please label the pictures below.,NA,NA,26,NA,NA,images/spidermonkey.jpg,apes,NA,graduated_college,English,female,NA,monkeys|apes|primates,NA,3,1564588385838,1,NA,1.1,These are both,gorilla,NA,warmup
100,spider monkey,NA,NA,5,images/gorilla.jpg,spider monkey,This is a,no,2,primates,mary,gorilla,yes,Please label the pictures below.,NA,NA,26,NA,NA,images/spidermonkey.jpg,apes,NA,graduated_college,English,female,NA,monkeys|apes|primates,NA,3,1564588385838,2,NA,1.1,These are both,gorilla,NA,warmup
100,NA,small,images/monkey-parade-small.png,5,NA,NA,That's a small,no,2,primates,mary,NA,yes,Another animal belongs to the group.,prenominal,You say to your friend:,26,spider monkey,NA,NA,NA,small,graduated_college,English,female,NA,NA,You see a group of animals.,1,1564588385838,NA,images/spidermonkey.jpg,1.1,NA,NA,congruent,main
100,NA,small,images/dog_parade.png,5,NA,NA,That's a small,no,2,dogs,mary,NA,yes,Another animal belongs to the group.,prenominal,You say to your friend:,26,pug,NA,NA,NA,big,graduated_college,English,female,NA,NA,You see a group of animals.,2,1564588385838,NA,images/great-dane-s.jpg,1.1,NA,NA,incongruent,main
100,NA,small,images/fish-parade.png,5,NA,NA,That's a small,no,2,fish,mary,NA,yes,Another animal belongs to the group.,prenominal,You say to your friend:,26,swordfish,NA,NA,NA,big,graduated_college,English,female,NA,NA,You see a group of animals.,3,1564588385838,NA,images/swordfish-s.jpg,1.1,NA,NA,incongruent,main
100,tree,NA,NA,5,images/bonsai.jpg,redwood|sequoia,This is a,no,2,trees,mary,bonsai,yes,Please label the pictures below.,NA,NA,26,NA,NA,images/sequoia.jpg,trees,NA,graduated_college,English,female,NA,trees,NA,1,1564588385838,1,NA,1.1,These are both,sapling,NA,warmup
100,redwood,NA,NA,5,images/bonsai.jpg,redwood|sequoia,This is a,no,2,trees,mary,bonsai,yes,Please label the pictures below.,NA,NA,26,NA,NA,images/sequoia.jpg,trees,NA,graduated_college,English,female,NA,trees,NA,1,1564588385838,2,NA,1.1,These are both,bonsai,NA,warmup
100,swan,NA,NA,5,images/colibri.jpg,swan,This is a,no,2,birds,mary,hummingbird,yes,Please label the pictures below.,NA,NA,26,NA,NA,images/swan.jpg,birds,NA,graduated_college,English,female,NA,birds,NA,2,1564588385838,1,NA,1.1,These are both,hummingbird,NA,warmup
100,dandelion,NA,NA,5,images/sunflower.png,daisy,This is a,no,2,flowers,mary,sunflower,yes,Please label the pictures below.,NA,NA,26,NA,NA,images/daisy.png,flowers,NA,graduated_college,English,female,NA,flowers,NA,3,1564588385838,1,NA,1.1,These are both,sunflower,NA,warmup
100,daisy,NA,NA,5,images/sunflower.png,daisy,This is a,no,2,flowers,mary,sunflower,yes,Please label the pictures below.,NA,NA,26,NA,NA,images/daisy.png,flowers,NA,graduated_college,English,female,NA,flowers,NA,3,1564588385838,2,NA,1.1,These are both,sunflower,NA,warmup
100,NA,small,images/flower-parade-small.png,5,NA,NA,That's a small,no,2,flowers,mary,NA,yes,Another plant belongs to the group.,prenominal,You say to your friend:,26,daisy,NA,NA,NA,small,graduated_college,English,female,NA,NA,You see a group of plants.,1,1564588385838,NA,images/daisy.png,1.1,NA,NA,congruent,main
100,NA,big,images/bird-parade-small.png,5,NA,NA,That's a big,no,2,birds,mary,NA,yes,Another animal bleongs to the group.,prenominal,You say to your friend:,26,hummingbird,NA,NA,NA,small,graduated_college,English,female,NA,NA,You see a group of animals.,2,1564588385838,NA,images/colibri-b.jpg,1.1,NA,NA,incongruent,main
100,NA,big,images/tree-parade.png,5,NA,NA,That's a big,no,2,trees,mary,NA,yes,Another plant belongs to the group.,prenominal,You say to your friend:,26,redwood,NA,NA,NA,big,graduated_college,English,female,NA,NA,You see a group of plants.,3,1564588385838,NA,images/sequoia.jpg,1.1,NA,NA,congruent,main
104,swordfish,NA,NA,5,images/goldfish.png,swordfish,This is a,no,1,fish,Linda,goldfish,yes,Please label the pictures below.,NA,NA,44,NA,thanks,images/swordfish.jpg,fish,NA,graduated_high_school,English,male,NA,fish,NA,1,1564588461507,1,NA,2,These are both,goldfish,NA,warmup
104,monkey,NA,NA,5,images/gorilla.jpg,spider monkey,This is a,no,1,primates,Linda,gorilla,yes,Please label the pictures below.,NA,NA,44,NA,thanks,images/spidermonkey.jpg,animals,NA,graduated_high_school,English,male,NA,monkeys|apes|primates,NA,2,1564588461507,1,NA,2,These are both,gorilla,NA,warmup
104,monkey,NA,NA,5,images/gorilla.jpg,spider monkey,This is a,no,1,primates,Linda,gorilla,yes,Please label the pictures below.,NA,NA,44,NA,thanks,images/spidermonkey.jpg,primates,NA,graduated_high_school,English,male,NA,monkeys|apes|primates,NA,2,1564588461507,2,NA,2,These are both,gorilla,NA,warmup
104,monkey,NA,NA,5,images/gorilla.jpg,spider monkey,This is a,no,1,primates,Linda,gorilla,yes,Please label the pictures below.,NA,NA,44,NA,thanks,images/spidermonkey.jpg,primates,NA,graduated_high_school,English,male,NA,monkeys|apes|primates,NA,2,1564588461507,3,NA,2,These are both,gorilla,NA,warmup
104,monkey,NA,NA,5,images/gorilla.jpg,spider monkey,This is a,no,1,primates,Linda,gorilla,yes,Please label the pictures below.,NA,NA,44,NA,thanks,images/spidermonkey.jpg,primates,NA,graduated_high_school,English,male,NA,monkeys|apes|primates,NA,2,1564588461507,4,NA,2,These are both,gorilla,NA,warmup
104,spider monkey,NA,NA,5,images/gorilla.jpg,spider monkey,This is a,no,1,primates,Linda,gorilla,yes,Please label the pictures below.,NA,NA,44,NA,thanks,images/spidermonkey.jpg,primates,NA,graduated_high_school,English,male,NA,monkeys|apes|primates,NA,2,1564588461507,5,NA,2,These are both,gorilla,NA,warmup
104,dog,NA,NA,5,images/great-dane.jpg,chihuahua,This is a,no,1,dogs,Linda,great dane,yes,Please label the pictures below.,NA,NA,44,NA,thanks,images/chihuahua.jpg,dog,NA,graduated_high_school,English,male,NA,dogs,NA,3,1564588461507,1,NA,2,These are both,dog,NA,warmup
104,chihuahua,NA,NA,5,images/great-dane.jpg,chihuahua,This is a,no,1,dogs,Linda,great dane,yes,Please label the pictures below.,NA,NA,44,NA,thanks,images/chihuahua.jpg,dogs,NA,graduated_high_school,English,male,NA,dogs,NA,3,1564588461507,2,NA,2,These are both,great dane,NA,warmup
104,NA,small,images/monkey-parade.png,5,NA,NA,That,no,1,primates,Linda,NA,yes,Another animal belongs to the group.,predicative,You say to your friend:,44,monkey,thanks,NA,NA,big,graduated_high_school,English,male,NA,NA,You see a group of animals.,1,1564588461507,NA,images/gorilla_s.jpg,2,is small.,NA,incongruent,main
104,NA,big,images/fish-parade.png,5,NA,NA,That,no,1,fish,Linda,NA,yes,Another animal belongs to the group.,predicative,You say to your friend:,44,swordfish,thanks,NA,NA,small,graduated_high_school,English,male,NA,NA,You see a group of animals.,2,1564588461507,NA,images/goldfish-b.png,2,is big.,NA,incongruent,main
104,NA,small,images/dog_parade_small.png,5,NA,NA,That,no,1,dogs,Linda,NA,yes,Another animal belongs to the group.,predicative,You say to your friend:,44,chiuaha,thanks,NA,NA,small,graduated_high_school,English,male,NA,NA,You see a group of animals.,3,1564588461507,NA,images/chihuahua.jpg,2,is small.,NA,congruent,main
104,daisy,NA,NA,5,images/sunflower.png,daisy,This is a,no,1,flowers,Linda,sunflower,yes,Please label the pictures below.,NA,NA,44,NA,thanks,images/daisy.png,flowers,NA,graduated_high_school,English,male,NA,flowers,NA,1,1564588461507,1,NA,2,These are both,sunflower,NA,warmup
104,swan,NA,NA,5,images/colibri.jpg,swan,This is a,no,1,birds,Linda,hummingbird,yes,Please label the pictures below.,NA,NA,44,NA,thanks,images/swan.jpg,birds,NA,graduated_high_school,English,male,NA,birds,NA,2,1564588461507,1,NA,2,These are both,hummingbird,NA,warmup
104,oak tree,NA,NA,5,images/bonsai.jpg,redwood|sequoia,This is a,no,1,trees,Linda,bonsai,yes,Please label the pictures below.,NA,NA,44,NA,thanks,images/sequoia.jpg,trees,NA,graduated_high_school,English,male,NA,trees,NA,3,1564588461507,1,NA,2,These are both,bonsai,NA,warmup
104,redwood,NA,NA,5,images/bonsai.jpg,redwood|sequoia,This is a,no,1,trees,Linda,bonsai,yes,Please label the pictures below.,NA,NA,44,NA,thanks,images/sequoia.jpg,trees,NA,graduated_high_school,English,male,NA,trees,NA,3,1564588461507,2,NA,2,These are both,bonsai,NA,warmup
104,NA,big,images/tree-parade.png,5,NA,NA,That,no,1,trees,Linda,NA,yes,Another plant belongs to the group.,predicative,You say to your friend:,44,redwood,thanks,NA,NA,big,graduated_high_school,English,male,NA,NA,You see a group of plants.,1,1564588461507,NA,images/sequoia.jpg,2,is big.,NA,congruent,main
104,NA,big,images/bird-parade.png,5,NA,NA,That,no,1,birds,Linda,NA,yes,Another animal belongs to the group.,predicative,You say to your friend:,44,swan,thanks,NA,NA,big,graduated_high_school,English,male,NA,NA,You see a group of animals.,2,1564588461507,NA,images/swan.jpg,2,is big.,NA,congruent,main
104,NA,big,images/flower-parade-small.png,5,NA,NA,That,no,1,flowers,Linda,NA,yes,Another plant belongs to the group.,predicative,You say to your friend:,44,sunflower,thanks,NA,NA,small,graduated_high_school,English,male,NA,NA,You see a group of plants.,3,1564588461507,NA,images/daisy-b.png,2,is big.,NA,incongruent,main
111,daisy,NA,NA,5,images/sunflower.png,daisy,This is a,NA,1,flowers,mary,sunflower,yes,Please label the pictures below.,NA,NA,29,NA,NA,images/daisy.png,flowers,NA,graduated_college,English,male,NA,flowers,NA,1,1564588586332,1,NA,2,These are both,sunflower,NA,warmup
111,chihuahua,NA,NA,5,images/great-dane.jpg,chihuahua,This is a,NA,1,dogs,mary,great dane,yes,Please label the pictures below.,NA,NA,29,NA,NA,images/chihuahua.jpg,dogs,NA,graduated_college,English,male,NA,dogs,NA,2,1564588586332,1,NA,2,These are both,great dane,NA,warmup
111,pine,NA,NA,5,images/bonsai.jpg,redwood|sequoia,This is a,NA,1,trees,mary,bonsai,yes,Please label the pictures below.,NA,NA,29,NA,NA,images/sequoia.jpg,trees,NA,graduated_college,English,male,NA,trees,NA,3,1564588586332,1,NA,2,These are both,tree,NA,warmup
111,redwood,NA,NA,5,images/bonsai.jpg,redwood|sequoia,This is a,NA,1,trees,mary,bonsai,yes,Please label the pictures below.,NA,NA,29,NA,NA,images/sequoia.jpg,trees,NA,graduated_college,English,male,NA,trees,NA,3,1564588586332,2,NA,2,These are both,bonsai,NA,warmup
111,NA,big,images/tree-parade.png,5,NA,NA,That,NA,1,trees,mary,NA,yes,Another plant belongs to the group.,predicative,You say to your friend:,29,plant,NA,NA,NA,small,graduated_college,English,male,NA,NA,You see a group of plants.,1,1564588586332,NA,images/bonsai-b.png,2,is big.,NA,incongruent,main
111,NA,big,images/dog_parade_small.png,5,NA,NA,That,NA,1,dogs,mary,NA,yes,Another animal belongs to the group.,predicative,You say to your friend:,29,dog,NA,NA,NA,small,graduated_college,English,male,NA,NA,You see a group of animals.,2,1564588586332,NA,images/chihuahua-b.jpg,2,is big.,NA,incongruent,main
111,NA,big,images/flower-parade.png,5,NA,NA,That,NA,1,flowers,mary,NA,yes,Another plant belongs to the group.,predicative,You say to your friend:,29,flower,NA,NA,NA,big,graduated_college,English,male,NA,NA,You see a group of plants.,3,1564588586332,NA,images/sunflower.png,2,is big.,NA,congruent,main
111,monkey,NA,NA,5,images/gorilla.jpg,spider monkey,This is a,NA,1,primates,mary,gorilla,yes,Please label the pictures below.,NA,NA,29,NA,NA,images/spidermonkey.jpg,apes,NA,graduated_college,English,male,NA,monkeys|apes|primates,NA,1,1564588586332,1,NA,2,These are both,baboon,NA,warmup
111,spider monkey,NA,NA,5,images/gorilla.jpg,spider monkey,This is a,NA,1,primates,mary,gorilla,yes,Please label the pictures below.,NA,NA,29,NA,NA,images/spidermonkey.jpg,apes,NA,graduated_college,English,male,NA,monkeys|apes|primates,NA,1,1564588586332,2,NA,2,These are both,gorilla,NA,warmup
111,shark,NA,NA,5,images/goldfish.png,swordfish,This is a,NA,1,fish,mary,goldfish,yes,Please label the pictures below.,NA,NA,29,NA,NA,images/swordfish.jpg,fishes,NA,graduated_college,English,male,NA,fish,NA,2,1564588586332,1,NA,2,These are both,fish,NA,warmup
111,swordfish,NA,NA,5,images/goldfish.png,swordfish,This is a,NA,1,fish,mary,goldfish,yes,Please label the pictures below.,NA,NA,29,NA,NA,images/swordfish.jpg,fish,NA,graduated_college,English,male,NA,fish,NA,2,1564588586332,2,NA,2,These are both,goldfish,NA,warmup
111,duck,NA,NA,5,images/colibri.jpg,swan,This is a,NA,1,birds,mary,hummingbird,yes,Please label the pictures below.,NA,NA,29,NA,NA,images/swan.jpg,birds,NA,graduated_college,English,male,NA,birds,NA,3,1564588586332,1,NA,2,These are both,hummingbird,NA,warmup
111,swan,NA,NA,5,images/colibri.jpg,swan,This is a,NA,1,birds,mary,hummingbird,yes,Please label the pictures below.,NA,NA,29,NA,NA,images/swan.jpg,birds,NA,graduated_college,English,male,NA,birds,NA,3,1564588586332,2,NA,2,These are both,hummingbird,NA,warmup
111,NA,small,images/fish-parade.png,5,NA,NA,That,NA,1,fish,mary,NA,yes,Another animal belongs to the group.,predicative,You say to your friend:,29,fish,NA,NA,NA,big,graduated_college,English,male,NA,NA,You see a group of animals.,1,1564588586332,NA,images/swordfish-s.jpg,2,is small.,NA,incongruent,main
111,NA,small,images/bird-parade-small.png,5,NA,NA,That,NA,1,birds,mary,NA,yes,Another animal bleongs to the group.,predicative,You say to your friend:,29,bird,NA,NA,NA,small,graduated_college,English,male,NA,NA,You see a group of animals.,2,1564588586332,NA,images/colibri.jpg,2,is small.,NA,congruent,main
111,NA,big,images/monkey-parade.png,5,NA,NA,That,NA,1,primates,mary,NA,yes,Another animal belongs to the group.,predicative,You say to your friend:,29,ape,NA,NA,NA,big,graduated_college,English,male,NA,NA,You see a group of animals.,3,1564588586332,NA,images/gorilla.jpg,2,is big.,NA,congruent,main
112,swordfish,NA,NA,5,images/goldfish.png,swordfish,This is a,NA,1,fish,Margaret,goldfish,NA,Please label the pictures below.,NA,NA,NA,NA,NA,images/swordfish.jpg,fish,NA,some_college,english,NA,NA,fish,NA,1,1564588599669,1,NA,2,These are both,goldfish,NA,warmup
112,monkey,NA,NA,5,images/gorilla.jpg,spider monkey,This is a,NA,1,primates,Margaret,gorilla,NA,Please label the pictures below.,NA,NA,NA,NA,NA,images/spidermonkey.jpg,mammels,NA,some_college,english,NA,NA,monkeys|apes|primates,NA,2,1564588599669,1,NA,2,These are both,gorilla,NA,warmup
112,monkey,NA,NA,5,images/gorilla.jpg,spider monkey,This is a,NA,1,primates,Margaret,gorilla,NA,Please label the pictures below.,NA,NA,NA,NA,NA,images/spidermonkey.jpg,apes,NA,some_college,english,NA,NA,monkeys|apes|primates,NA,2,1564588599669,2,NA,2,These are both,gorilla,NA,warmup
112,monkey,NA,NA,5,images/gorilla.jpg,spider monkey,This is a,NA,1,primates,Margaret,gorilla,NA,Please label the pictures below.,NA,NA,NA,NA,NA,images/spidermonkey.jpg,apes,NA,some_college,english,NA,NA,monkeys|apes|primates,NA,2,1564588599669,3,NA,2,These are both,gorilla,NA,warmup
112,monkey,NA,NA,5,images/gorilla.jpg,spider monkey,This is a,NA,1,primates,Margaret,gorilla,NA,Please label the pictures below.,NA,NA,NA,NA,NA,images/spidermonkey.jpg,apes,NA,some_college,english,NA,NA,monkeys|apes|primates,NA,2,1564588599669,4,NA,2,These are both,gorilla,NA,warmup
112,monkey,NA,NA,5,images/gorilla.jpg,spider monkey,This is a,NA,1,primates,Margaret,gorilla,NA,Please label the pictures below.,NA,NA,NA,NA,NA,images/spidermonkey.jpg,apes,NA,some_college,english,NA,NA,monkeys|apes|primates,NA,2,1564588599669,5,NA,2,These are both,gorilla,NA,warmup
112,monkey,NA,NA,5,images/gorilla.jpg,spider monkey,This is a,NA,1,primates,Margaret,gorilla,NA,Please label the pictures below.,NA,NA,NA,NA,NA,images/spidermonkey.jpg,apes,NA,some_college,english,NA,NA,monkeys|apes|primates,NA,2,1564588599669,6,NA,2,These are both,gorilla,NA,warmup
112,monkey,NA,NA,5,images/gorilla.jpg,spider monkey,This is a,NA,1,primates,Margaret,gorilla,NA,Please label the pictures below.,NA,NA,NA,NA,NA,images/spidermonkey.jpg,apes,NA,some_college,english,NA,NA,monkeys|apes|primates,NA,2,1564588599669,7,NA,2,These are both,gorilla,NA,warmup
112,monkey,NA,NA,5,images/gorilla.jpg,spider monkey,This is a,NA,1,primates,Margaret,gorilla,NA,Please label the pictures below.,NA,NA,NA,NA,NA,images/spidermonkey.jpg,monkeys,NA,some_college,english,NA,NA,monkeys|apes|primates,NA,2,1564588599669,8,NA,2,These are both,gorilla,NA,warmup
112,monkey,NA,NA,5,images/gorilla.jpg,spider monkey,This is a,NA,1,primates,Margaret,gorilla,NA,Please label the pictures below.,NA,NA,NA,NA,NA,images/spidermonkey.jpg,monkeys,NA,some_college,english,NA,NA,monkeys|apes|primates,NA,2,1564588599669,9,NA,2,These are both,gorilla,NA,warmup
112,spider monkey,NA,NA,5,images/gorilla.jpg,spider monkey,This is a,NA,1,primates,Margaret,gorilla,NA,Please label the pictures below.,NA,NA,NA,NA,NA,images/spidermonkey.jpg,apes,NA,some_college,english,NA,NA,monkeys|apes|primates,NA,2,1564588599669,10,NA,2,These are both,gorilla,NA,warmup
112,swan,NA,NA,5,images/colibri.jpg,swan,This is a,NA,1,birds,Margaret,hummingbird,NA,Please label the pictures below.,NA,NA,NA,NA,NA,images/swan.jpg,birds,NA,some_college,english,NA,NA,birds,NA,3,1564588599669,1,NA,2,These are both,humming bird,NA,warmup
112,swan,NA,NA,5,images/colibri.jpg,swan,This is a,NA,1,birds,Margaret,hummingbird,NA,Please label the pictures below.,NA,NA,NA,NA,NA,images/swan.jpg,birds,NA,some_college,english,NA,NA,birds,NA,3,1564588599669,2,NA,2,These are both,hummingbird,NA,warmup
112,NA,big,images/monkey-parade-small.png,5,NA,NA,That's a big,NA,1,primates,Margaret,NA,NA,Another animal belongs to the group.,prenominal,You say to your friend:,NA,monkey,NA,NA,NA,small,some_college,english,NA,NA,NA,You see a group of animals.,1,1564588599669,NA,images/spidermonkey-b.jpg,2,NA,NA,incongruent,main
112,NA,small,images/fish-parade.png,5,NA,NA,That's a small,NA,1,fish,Margaret,NA,NA,Another animal belongs to the group.,prenominal,You say to your friend:,NA,fish,NA,NA,NA,big,some_college,english,NA,NA,NA,You see a group of animals.,2,1564588599669,NA,images/swordfish-s.jpg,2,NA,NA,incongruent,main
112,NA,small,images/bird-parade-small.png,5,NA,NA,That's a small,NA,1,birds,Margaret,NA,NA,Another animal bleongs to the group.,prenominal,You say to your friend:,NA,bird,NA,NA,NA,small,some_college,english,NA,NA,NA,You see a group of animals.,3,1564588599669,NA,images/colibri.jpg,2,NA,NA,congruent,main
112,chiwawa,NA,NA,5,images/great-dane.jpg,chihuahua,This is a,NA,1,dogs,Margaret,great dane,NA,Please label the pictures below.,NA,NA,NA,NA,NA,images/chihuahua.jpg,dogs,NA,some_college,english,NA,NA,dogs,NA,1,1564588599669,1,NA,2,These are both,greyhound,NA,warmup
112,chihuahua,NA,NA,5,images/great-dane.jpg,chihuahua,This is a,NA,1,dogs,Margaret,great dane,NA,Please label the pictures below.,NA,NA,NA,NA,NA,images/chihuahua.jpg,dogs,NA,some_college,english,NA,NA,dogs,NA,1,1564588599669,2,NA,2,These are both,great dane,NA,warmup
112,daisy,NA,NA,5,images/sunflower.png,daisy,This is a,NA,1,flowers,Margaret,sunflower,NA,Please label the pictures below.,NA,NA,NA,NA,NA,images/daisy.png,flowers,NA,some_college,english,NA,NA,flowers,NA,2,1564588599669,1,NA,2,These are both,sunflower,NA,warmup
112,pine,NA,NA,5,images/bonsai.jpg,redwood|sequoia,This is a,NA,1,trees,Margaret,bonsai,NA,Please label the pictures below.,NA,NA,NA,NA,NA,images/sequoia.jpg,trees,NA,some_college,english,NA,NA,trees,NA,3,1564588599669,1,NA,2,These are both,hhh,NA,warmup
112,redwood,NA,NA,5,images/bonsai.jpg,redwood|sequoia,This is a,NA,1,trees,Margaret,bonsai,NA,Please label the pictures below.,NA,NA,NA,NA,NA,images/sequoia.jpg,trees,NA,some_college,english,NA,NA,trees,NA,3,1564588599669,2,NA,2,These are both,bonsai,NA,warmup
112,NA,small,images/tree-parade.png,5,NA,NA,That's a small,NA,1,trees,Margaret,NA,NA,Another plant belongs to the group.,prenominal,You say to your friend:,NA,tree,NA,NA,NA,small,some_college,english,NA,NA,NA,You see a group of plants.,1,1564588599669,NA,images/bonsai.jpg,2,NA,NA,congruent,main
112,NA,big,images/flower-parade.png,5,NA,NA,That's a big,NA,1,flowers,Margaret,NA,NA,Another plant belongs to the group.,prenominal,You say to your friend:,NA,flower,NA,NA,NA,big,some_college,english,NA,NA,NA,You see a group of plants.,2,1564588599669,NA,images/sunflower.png,2,NA,NA,congruent,main
112,NA,small,images/dog_parade.png,5,NA,NA,That's a small,NA,1,dogs,Margaret,NA,NA,Another animal belongs to the group.,prenominal,You say to your friend:,NA,dog,NA,NA,NA,big,some_college,english,NA,NA,NA,You see a group of animals.,3,1564588599669,NA,images/great-dane-s.jpg,2,NA,NA,incongruent,main
118,dandelion,NA,NA,5,images/sunflower.png,daisy,This is a,no,1,flowers,patricia,sunflower,yes,Please label the pictures below.,NA,NA,33,NA,NA,images/daisy.png,plants,NA,graduated_college,English,male,NA,flowers,NA,1,1564588559832,1,NA,1,These are both,sunflower,NA,warmup
118,daisy,NA,NA,5,images/sunflower.png,daisy,This is a,no,1,flowers,patricia,sunflower,yes,Please label the pictures below.,NA,NA,33,NA,NA,images/daisy.png,flowers,NA,graduated_college,English,male,NA,flowers,NA,1,1564588559832,2,NA,1,These are both,sunflower,NA,warmup
118,monkey,NA,NA,5,images/gorilla.jpg,spider monkey,This is a,no,1,primates,patricia,gorilla,yes,Please label the pictures below.,NA,NA,33,NA,NA,images/spidermonkey.jpg,mamals,NA,graduated_college,English,male,NA,monkeys|apes|primates,NA,2,1564588559832,1,NA,1,These are both,gorilla,NA,warmup
118,spider monkey,NA,NA,5,images/gorilla.jpg,spider monkey,This is a,no,1,primates,patricia,gorilla,yes,Please label the pictures below.,NA,NA,33,NA,NA,images/spidermonkey.jpg,monkeys,NA,graduated_college,English,male,NA,monkeys|apes|primates,NA,2,1564588559832,2,NA,1,These are both,gorilla,NA,warmup
118,oak,NA,NA,5,images/bonsai.jpg,redwood|sequoia,This is a,no,1,trees,patricia,bonsai,yes,Please label the pictures below.,NA,NA,33,NA,NA,images/sequoia.jpg,trees,NA,graduated_college,English,male,NA,trees,NA,3,1564588559832,1,NA,1,These are both,bonsai,NA,warmup
118,redwood,NA,NA,5,images/bonsai.jpg,redwood|sequoia,This is a,no,1,trees,patricia,bonsai,yes,Please label the pictures below.,NA,NA,33,NA,NA,images/sequoia.jpg,trees,NA,graduated_college,English,male,NA,trees,NA,3,1564588559832,2,NA,1,These are both,bonsai,NA,warmup
118,NA,small,images/flower-parade-small.png,5,NA,NA,That's a small,no,1,flowers,patricia,NA,yes,Another plant belongs to the group.,prenominal,You say to your friend:,33,daisy,NA,NA,NA,small,graduated_college,English,male,NA,NA,You see a group of plants.,1,1564588559832,NA,images/daisy.png,1,NA,NA,congruent,main
118,NA,small,images/tree-parade.png,5,NA,NA,That's a small,no,1,trees,patricia,NA,yes,Another plant belongs to the group.,prenominal,You say to your friend:,33,redwood,NA,NA,NA,big,graduated_college,English,male,NA,NA,You see a group of plants.,2,1564588559832,NA,images/sequoia-s.jpg,1,NA,NA,incongruent,main
118,NA,big,images/monkey-parade.png,5,NA,NA,That's a big,no,1,primates,patricia,NA,yes,Another animal belongs to the group.,prenominal,You say to your friend:,33,gorilla,NA,NA,NA,big,graduated_college,English,male,NA,NA,You see a group of animals.,3,1564588559832,NA,images/gorilla.jpg,1,NA,NA,congruent,main
118,marlin,NA,NA,5,images/goldfish.png,swordfish,This is a,no,1,fish,patricia,goldfish,yes,Please label the pictures below.,NA,NA,33,NA,NA,images/swordfish.jpg,fish,NA,graduated_college,English,male,NA,fish,NA,1,1564588559832,1,NA,1,These are both,goldfish,NA,warmup
118,swordfish,NA,NA,5,images/goldfish.png,swordfish,This is a,no,1,fish,patricia,goldfish,yes,Please label the pictures below.,NA,NA,33,NA,NA,images/swordfish.jpg,fish,NA,graduated_college,English,male,NA,fish,NA,1,1564588559832,2,NA,1,These are both,goldfish,NA,warmup
118,swan,NA,NA,5,images/colibri.jpg,swan,This is a,no,1,birds,patricia,hummingbird,yes,Please label the pictures below.,NA,NA,33,NA,NA,images/swan.jpg,birds,NA,graduated_college,English,male,NA,birds,NA,2,1564588559832,1,NA,1,These are both,hummingbird,NA,warmup
118,chiwawa,NA,NA,5,images/great-dane.jpg,chihuahua,This is a,no,1,dogs,patricia,great dane,yes,Please label the pictures below.,NA,NA,33,NA,NA,images/chihuahua.jpg,dogs,NA,graduated_college,English,male,NA,dogs,NA,3,1564588559832,1,NA,1,These are both,dane,NA,warmup
118,chihuahua,NA,NA,5,images/great-dane.jpg,chihuahua,This is a,no,1,dogs,patricia,great dane,yes,Please label the pictures below.,NA,NA,33,NA,NA,images/chihuahua.jpg,dogs,NA,graduated_college,English,male,NA,dogs,NA,3,1564588559832,2,NA,1,These are both,great dane,NA,warmup
118,NA,big,images/dog_parade.png,5,NA,NA,That's a big,no,1,dogs,patricia,NA,yes,Another animal belongs to the group.,prenominal,You say to your friend:,33,great dane,NA,NA,NA,big,graduated_college,English,male,NA,NA,You see a group of animals.,1,1564588559832,NA,images/great-dane.jpg,1,NA,NA,congruent,main
118,NA,big,images/fish-parade.png,5,NA,NA,That's a big,no,1,fish,patricia,NA,yes,Another animal belongs to the group.,prenominal,You say to your friend:,33,goldfish,NA,NA,NA,small,graduated_college,English,male,NA,NA,You see a group of animals.,2,1564588559832,NA,images/goldfish-b.png,1,NA,NA,incongruent,main
118,NA,big,images/bird-parade-small.png,5,NA,NA,That's a big,no,1,birds,patricia,NA,yes,Another animal bleongs to the group.,prenominal,You say to your friend:,33,hummingbird,NA,NA,NA,small,graduated_college,English,male,NA,NA,You see a group of animals.,3,1564588559832,NA,images/colibri-b.jpg,1,NA,NA,incongruent,main
123,Tree,NA,NA,5,images/bonsai.jpg,redwood|sequoia,This is a,no,2,trees,margaret,bonsai,NA,Please label the pictures below.,NA,NA,NA,NA,NA,images/sequoia.jpg,Plants,NA,graduated_college,English,NA,NA,trees,NA,1,1564588365922,1,NA,1.27,These are both,Plant,NA,warmup
123,redwood,NA,NA,5,images/bonsai.jpg,redwood|sequoia,This is a,no,2,trees,margaret,bonsai,NA,Please label the pictures below.,NA,NA,NA,NA,NA,images/sequoia.jpg,tress,NA,graduated_college,English,NA,NA,trees,NA,1,1564588365922,2,NA,1.27,These are both,bonsai,NA,warmup
123,redwood,NA,NA,5,images/bonsai.jpg,redwood|sequoia,This is a,no,2,trees,margaret,bonsai,NA,Please label the pictures below.,NA,NA,NA,NA,NA,images/sequoia.jpg,trees,NA,graduated_college,English,NA,NA,trees,NA,1,1564588365922,3,NA,1.27,These are both,bonsai,NA,warmup
123,monkey,NA,NA,5,images/gorilla.jpg,spider monkey,This is a,no,2,primates,margaret,gorilla,NA,Please label the pictures below.,NA,NA,NA,NA,NA,images/spidermonkey.jpg,mammals,NA,graduated_college,English,NA,NA,monkeys|apes|primates,NA,2,1564588365922,1,NA,1.27,These are both,gorilla,NA,warmup
123,spider monkey,NA,NA,5,images/gorilla.jpg,spider monkey,This is a,no,2,primates,margaret,gorilla,NA,Please label the pictures below.,NA,NA,NA,NA,NA,images/spidermonkey.jpg,apes,NA,graduated_college,English,NA,NA,monkeys|apes|primates,NA,2,1564588365922,2,NA,1.27,These are both,gorilla,NA,warmup
123,flower,NA,NA,5,images/sunflower.png,daisy,This is a,no,2,flowers,margaret,sunflower,NA,Please label the pictures below.,NA,NA,NA,NA,NA,images/daisy.png,flowers,NA,graduated_college,English,NA,NA,flowers,NA,3,1564588365922,1,NA,1.27,These are both,sunflower,NA,warmup
123,daisy,NA,NA,5,images/sunflower.png,daisy,This is a,no,2,flowers,margaret,sunflower,NA,Please label the pictures below.,NA,NA,NA,NA,NA,images/daisy.png,flowers,NA,graduated_college,English,NA,NA,flowers,NA,3,1564588365922,2,NA,1.27,These are both,sunflower,NA,warmup
123,NA,small,images/tree-parade.png,5,NA,NA,That,no,2,trees,margaret,NA,NA,Another plant belongs to the group.,predicative,You say to your friend:,NA,redwood,NA,NA,NA,big,graduated_college,English,NA,NA,NA,You see a group of plants.,1,1564588365922,NA,images/sequoia-s.jpg,1.27,is small.,NA,incongruent,main
123,NA,big,images/flower-parade.png,5,NA,NA,That,no,2,flowers,margaret,NA,NA,Another plant belongs to the group.,predicative,You say to your friend:,NA,sunflower,NA,NA,NA,big,graduated_college,English,NA,NA,NA,You see a group of plants.,2,1564588365922,NA,images/sunflower.png,1.27,is big.,NA,congruent,main
123,NA,big,images/monkey-parade-small.png,5,NA,NA,That,no,2,primates,margaret,NA,NA,Another animal belongs to the group.,predicative,You say to your friend:,NA,monkey,NA,NA,NA,small,graduated_college,English,NA,NA,NA,You see a group of animals.,3,1564588365922,NA,images/spidermonkey-b.jpg,1.27,is big.,NA,incongruent,main
123,swan,NA,NA,5,images/colibri.jpg,swan,This is a,no,2,birds,margaret,hummingbird,NA,Please label the pictures below.,NA,NA,NA,NA,NA,images/swan.jpg,birds,NA,graduated_college,English,NA,NA,birds,NA,1,1564588365922,1,NA,1.27,These are both,wood pecker,NA,warmup
123,swan,NA,NA,5,images/colibri.jpg,swan,This is a,no,2,birds,margaret,hummingbird,NA,Please label the pictures below.,NA,NA,NA,NA,NA,images/swan.jpg,birds,NA,graduated_college,English,NA,NA,birds,NA,1,1564588365922,2,NA,1.27,These are both,hummingbird,NA,warmup
123,chihuahua,NA,NA,5,images/great-dane.jpg,chihuahua,This is a,no,2,dogs,margaret,great dane,NA,Please label the pictures below.,NA,NA,NA,NA,NA,images/chihuahua.jpg,dogs,NA,graduated_college,English,NA,NA,dogs,NA,2,1564588365922,1,NA,1.27,These are both,hound,NA,warmup
123,chihuahua,NA,NA,5,images/great-dane.jpg,chihuahua,This is a,no,2,dogs,margaret,great dane,NA,Please label the pictures below.,NA,NA,NA,NA,NA,images/chihuahua.jpg,dogs,NA,graduated_college,English,NA,NA,dogs,NA,2,1564588365922,2,NA,1.27,These are both,great dane,NA,warmup
123,pike,NA,NA,5,images/goldfish.png,swordfish,This is a,no,2,fish,margaret,goldfish,NA,Please label the pictures below.,NA,NA,NA,NA,NA,images/swordfish.jpg,fish,NA,graduated_college,English,NA,NA,fish,NA,3,1564588365922,1,NA,1.27,These are both,fish,NA,warmup
123,swordfish,NA,NA,5,images/goldfish.png,swordfish,This is a,no,2,fish,margaret,goldfish,NA,Please label the pictures below.,NA,NA,NA,NA,NA,images/swordfish.jpg,fish,NA,graduated_college,English,NA,NA,fish,NA,3,1564588365922,2,NA,1.27,These are both,goldfish,NA,warmup
123,NA,big,images/dog_parade_small.png,5,NA,NA,That,no,2,dogs,margaret,NA,NA,Another animal belongs to the group.,predicative,You say to your friend:,NA,chihuahua,NA,NA,NA,small,graduated_college,English,NA,NA,NA,You see a group of animals.,1,1564588365922,NA,images/chihuahua-b.jpg,1.27,is big.,NA,incongruent,main
123,NA,big,images/bird-parade.png,5,NA,NA,That,no,2,birds,margaret,NA,NA,Another animal belongs to the group.,predicative,You say to your friend:,NA,swan,NA,NA,NA,big,graduated_college,English,NA,NA,NA,You see a group of animals.,2,1564588365922,NA,images/swan.jpg,1.27,is big.,NA,congruent,main
123,NA,small,images/fish-parade.png,5,NA,NA,That,no,2,fish,margaret,NA,NA,Another animal belongs to the group.,predicative,You say to your friend:,NA,goldfish,NA,NA,NA,small,graduated_college,English,NA,NA,NA,You see a group of animals.,3,1564588365922,NA,images/goldfish.png,1.27,is small.,NA,congruent,main
128,swan,NA,NA,5,images/colibri.jpg,swan,This is a,No,1,birds,barbara,hummingbird,confused,Please label the pictures below.,NA,NA,48,NA,NA,images/swan.jpg,birds,NA,graduated_college,English,female,NA,birds,NA,1,1564588902089,1,NA,1.1,These are both,hummingbird,NA,warmup
128,tuna,NA,NA,5,images/goldfish.png,swordfish,This is a,No,1,fish,barbara,goldfish,confused,Please label the pictures below.,NA,NA,48,NA,NA,images/swordfish.jpg,fish,NA,graduated_college,English,female,NA,fish,NA,2,1564588902089,1,NA,1.1,These are both,goldfish,NA,warmup
128,swordfish,NA,NA,5,images/goldfish.png,swordfish,This is a,No,1,fish,barbara,goldfish,confused,Please label the pictures below.,NA,NA,48,NA,NA,images/swordfish.jpg,fish,NA,graduated_college,English,female,NA,fish,NA,2,1564588902089,2,NA,1.1,These are both,goldfish,NA,warmup
128,chihuahua,NA,NA,5,images/great-dane.jpg,chihuahua,This is a,No,1,dogs,barbara,great dane,confused,Please label the pictures below.,NA,NA,48,NA,NA,images/chihuahua.jpg,dogs,NA,graduated_college,English,female,NA,dogs,NA,3,1564588902089,1,NA,1.1,These are both,great dane,NA,warmup
128,NA,big,images/dog_parade_small.png,5,NA,NA,That,No,1,dogs,barbara,NA,confused,Another animal belongs to the group.,predicative,You say to your friend:,48,dog,NA,NA,NA,small,graduated_college,English,female,NA,NA,You see a group of animals.,1,1564588902089,NA,images/chihuahua-b.jpg,1.1,is big.,NA,incongruent,main
128,NA,small,images/bird-parade.png,5,NA,NA,That,No,1,birds,barbara,NA,confused,Another animal belongs to the group.,predicative,You say to your friend:,48,swan,NA,NA,NA,big,graduated_college,English,female,NA,NA,You see a group of animals.,2,1564588902089,NA,images/swan-s.jpg,1.1,is small.,NA,incongruent,main
128,NA,big,images/fish-parade.png,5,NA,NA,That,No,1,fish,barbara,NA,confused,Another animal belongs to the group.,predicative,You say to your friend:,48,swordfish,NA,NA,NA,big,graduated_college,English,female,NA,NA,You see a group of animals.,3,1564588902089,NA,images/swordfish.jpg,1.1,is big.,NA,congruent,main
128,pine tree,NA,NA,5,images/bonsai.jpg,redwood|sequoia,This is a,No,1,trees,barbara,bonsai,confused,Please label the pictures below.,NA,NA,48,NA,NA,images/sequoia.jpg,trees,NA,graduated_college,English,female,NA,trees,NA,1,1564588902089,1,NA,1.1,These are both,bonsai,NA,warmup
128,redwood,NA,NA,5,images/bonsai.jpg,redwood|sequoia,This is a,No,1,trees,barbara,bonsai,confused,Please label the pictures below.,NA,NA,48,NA,NA,images/sequoia.jpg,trees,NA,graduated_college,English,female,NA,trees,NA,1,1564588902089,2,NA,1.1,These are both,bonsai,NA,warmup
128,dandelion,NA,NA,5,images/sunflower.png,daisy,This is a,No,1,flowers,barbara,sunflower,confused,Please label the pictures below.,NA,NA,48,NA,NA,images/daisy.png,flowers,NA,graduated_college,English,female,NA,flowers,NA,2,1564588902089,1,NA,1.1,These are both,sunflower,NA,warmup
128,daisy,NA,NA,5,images/sunflower.png,daisy,This is a,No,1,flowers,barbara,sunflower,confused,Please label the pictures below.,NA,NA,48,NA,NA,images/daisy.png,flowers,NA,graduated_college,English,female,NA,flowers,NA,2,1564588902089,2,NA,1.1,These are both,sunflower,NA,warmup
128,monkey,NA,NA,5,images/gorilla.jpg,spider monkey,This is a,No,1,primates,barbara,gorilla,confused,Please label the pictures below.,NA,NA,48,NA,NA,images/spidermonkey.jpg,mammals,NA,graduated_college,English,female,NA,monkeys|apes|primates,NA,3,1564588902089,1,NA,1.1,These are both,ape,NA,warmup
128,spider monkey,NA,NA,5,images/gorilla.jpg,spider monkey,This is a,No,1,primates,barbara,gorilla,confused,Please label the pictures below.,NA,NA,48,NA,NA,images/spidermonkey.jpg,primates,NA,graduated_college,English,female,NA,monkeys|apes|primates,NA,3,1564588902089,2,NA,1.1,These are both,ape,NA,warmup
128,spider monkey,NA,NA,5,images/gorilla.jpg,spider monkey,This is a,No,1,primates,barbara,gorilla,confused,Please label the pictures below.,NA,NA,48,NA,NA,images/spidermonkey.jpg,primates,NA,graduated_college,English,female,NA,monkeys|apes|primates,NA,3,1564588902089,3,NA,1.1,These are both,ape,NA,warmup
128,spider monkey,NA,NA,5,images/gorilla.jpg,spider monkey,This is a,No,1,primates,barbara,gorilla,confused,Please label the pictures below.,NA,NA,48,NA,NA,images/spidermonkey.jpg,primates,NA,graduated_college,English,female,NA,monkeys|apes|primates,NA,3,1564588902089,4,NA,1.1,These are both,ape,NA,warmup
128,spider monkey,NA,NA,5,images/gorilla.jpg,spider monkey,This is a,No,1,primates,barbara,gorilla,confused,Please label the pictures below.,NA,NA,48,NA,NA,images/spidermonkey.jpg,primates,NA,graduated_college,English,female,NA,monkeys|apes|primates,NA,3,1564588902089,5,NA,1.1,These are both,ape,NA,warmup
128,spider monkey,NA,NA,5,images/gorilla.jpg,spider monkey,This is a,No,1,primates,barbara,gorilla,confused,Please label the pictures below.,NA,NA,48,NA,NA,images/spidermonkey.jpg,primates,NA,graduated_college,English,female,NA,monkeys|apes|primates,NA,3,1564588902089,6,NA,1.1,These are both,gorilla,NA,warmup
128,NA,small,images/flower-parade-small.png,5,NA,NA,That,No,1,flowers,barbara,NA,confused,Another plant belongs to the group.,predicative,You say to your friend:,48,daisy,NA,NA,NA,small,graduated_college,English,female,NA,NA,You see a group of plants.,1,1564588902089,NA,images/daisy.png,1.1,is small.,NA,congruent,main
128,NA,big,images/monkey-parade-small.png,5,NA,NA,That,No,1,primates,barbara,NA,confused,Another animal belongs to the group.,predicative,You say to your friend:,48,primate,NA,NA,NA,small,graduated_college,English,female,NA,NA,You see a group of animals.,2,1564588902089,NA,images/spidermonkey-b.jpg,1.1,is big.,NA,incongruent,main
128,NA,big,images/tree-parade.png,5,NA,NA,That,No,1,trees,barbara,NA,confused,Another plant belongs to the group.,predicative,You say to your friend:,48,tree,NA,NA,NA,big,graduated_college,English,female,NA,NA,You see a group of plants.,3,1564588902089,NA,images/sequoia.jpg,1.1,is big.,NA,congruent,main
131,swan,NA,NA,5,images/colibri.jpg,swan,This is a,NA,1,birds,elizabeth,hummingbird,yes,Please label the pictures below.,NA,NA,22,NA,NA,images/swan.jpg,birds,NA,graduated_college,English,male,NA,birds,NA,1,1564589027203,1,NA,1.1,These are both,hummingbird,NA,warmup
131,swordfish,NA,NA,5,images/goldfish.png,swordfish,This is a,NA,1,fish,elizabeth,goldfish,yes,Please label the pictures below.,NA,NA,22,NA,NA,images/swordfish.jpg,fish,NA,graduated_college,English,male,NA,fish,NA,2,1564589027203,1,NA,1.1,These are both,goldfish,NA,warmup
131,oak,NA,NA,5,images/bonsai.jpg,redwood|sequoia,This is a,NA,1,trees,elizabeth,bonsai,yes,Please label the pictures below.,NA,NA,22,NA,NA,images/sequoia.jpg,tree,NA,graduated_college,English,male,NA,trees,NA,3,1564589027203,1,NA,1.1,These are both,bonsai,NA,warmup
131,redwood,NA,NA,5,images/bonsai.jpg,redwood|sequoia,This is a,NA,1,trees,elizabeth,bonsai,yes,Please label the pictures below.,NA,NA,22,NA,NA,images/sequoia.jpg,trees,NA,graduated_college,English,male,NA,trees,NA,3,1564589027203,2,NA,1.1,These are both,bonsai,NA,warmup
131,NA,big,images/fish-parade.png,5,NA,NA,That,NA,1,fish,elizabeth,NA,yes,Another animal belongs to the group.,predicative,You say to your friend:,22,fish,NA,NA,NA,small,graduated_college,English,male,NA,NA,You see a group of animals.,1,1564589027203,NA,images/goldfish-b.png,1.1,is big.,NA,incongruent,main
131,NA,small,images/bird-parade-small.png,5,NA,NA,That,NA,1,birds,elizabeth,NA,yes,Another animal bleongs to the group.,predicative,You say to your friend:,22,bird,NA,NA,NA,small,graduated_college,English,male,NA,NA,You see a group of animals.,2,1564589027203,NA,images/colibri.jpg,1.1,is small.,NA,congruent,main
131,NA,big,images/tree-parade.png,5,NA,NA,That,NA,1,trees,elizabeth,NA,yes,Another plant belongs to the group.,predicative,You say to your friend:,22,tree,NA,NA,NA,small,graduated_college,English,male,NA,NA,You see a group of plants.,3,1564589027203,NA,images/bonsai-b.png,1.1,is big.,NA,incongruent,main
131,monkey,NA,NA,5,images/gorilla.jpg,spider monkey,This is a,NA,1,primates,elizabeth,gorilla,yes,Please label the pictures below.,NA,NA,22,NA,NA,images/spidermonkey.jpg,apes,NA,graduated_college,English,male,NA,monkeys|apes|primates,NA,1,1564589027203,1,NA,1.1,These are both,gorilla,NA,warmup
131,spider monkey,NA,NA,5,images/gorilla.jpg,spider monkey,This is a,NA,1,primates,elizabeth,gorilla,yes,Please label the pictures below.,NA,NA,22,NA,NA,images/spidermonkey.jpg,apes,NA,graduated_college,English,male,NA,monkeys|apes|primates,NA,1,1564589027203,2,NA,1.1,These are both,gorilla,NA,warmup
131,dandelion,NA,NA,5,images/sunflower.png,daisy,This is a,NA,1,flowers,elizabeth,sunflower,yes,Please label the pictures below.,NA,NA,22,NA,NA,images/daisy.png,flowers,NA,graduated_college,English,male,NA,flowers,NA,2,1564589027203,1,NA,1.1,These are both,sunflower,NA,warmup
131,daisy,NA,NA,5,images/sunflower.png,daisy,This is a,NA,1,flowers,elizabeth,sunflower,yes,Please label the pictures below.,NA,NA,22,NA,NA,images/daisy.png,flowers,NA,graduated_college,English,male,NA,flowers,NA,2,1564589027203,2,NA,1.1,These are both,sunflower,NA,warmup
131,dog,NA,NA,5,images/great-dane.jpg,chihuahua,This is a,NA,1,dogs,elizabeth,great dane,yes,Please label the pictures below.,NA,NA,22,NA,NA,images/chihuahua.jpg,dogs,NA,graduated_college,English,male,NA,dogs,NA,3,1564589027203,1,NA,1.1,These are both,dog,NA,warmup
131,chihuahua,NA,NA,5,images/great-dane.jpg,chihuahua,This is a,NA,1,dogs,elizabeth,great dane,yes,Please label the pictures below.,NA,NA,22,NA,NA,images/chihuahua.jpg,dogs,NA,graduated_college,English,male,NA,dogs,NA,3,1564589027203,2,NA,1.1,These are both,great dane,NA,warmup
131,NA,big,images/flower-parade.png,5,NA,NA,That,NA,1,flowers,elizabeth,NA,yes,Another plant belongs to the group.,predicative,You say to your friend:,22,flower,NA,NA,NA,big,graduated_college,English,male,NA,NA,You see a group of plants.,1,1564589027203,NA,images/sunflower.png,1.1,is big.,NA,congruent,main
131,NA,small,images/dog_parade.png,5,NA,NA,That,NA,1,dogs,elizabeth,NA,yes,Another animal belongs to the group.,predicative,You say to your friend:,22,dog,NA,NA,NA,big,graduated_college,English,male,NA,NA,You see a group of animals.,2,1564589027203,NA,images/great-dane-s.jpg,1.1,is small.,NA,incongruent,main
131,NA,big,images/monkey-parade.png,5,NA,NA,That,NA,1,primates,elizabeth,NA,yes,Another animal belongs to the group.,predicative,You say to your friend:,22,ape,NA,NA,NA,big,graduated_college,English,male,NA,NA,You see a group of animals.,3,1564589027203,NA,images/gorilla.jpg,1.1,is big.,NA,congruent,main
132,small dog,NA,NA,5,images/great-dane.jpg,chihuahua,This is a,no,1,dogs,patricia,great dane,yes,Please label the pictures below.,NA,NA,34,NA,NA,images/chihuahua.jpg,dogs,NA,graduated_college,English,female,NA,dogs,NA,1,1564588479038,1,NA,1.25,These are both,large dog,NA,warmup
132,chihuahua,NA,NA,5,images/great-dane.jpg,chihuahua,This is a,no,1,dogs,patricia,great dane,yes,Please label the pictures below.,NA,NA,34,NA,NA,images/chihuahua.jpg,dogs,NA,graduated_college,English,female,NA,dogs,NA,1,1564588479038,2,NA,1.25,These are both,great dane,NA,warmup
132,monkey,NA,NA,5,images/gorilla.jpg,spider monkey,This is a,no,1,primates,patricia,gorilla,yes,Please label the pictures below.,NA,NA,34,NA,NA,images/spidermonkey.jpg,apes,NA,graduated_college,English,female,NA,monkeys|apes|primates,NA,2,1564588479038,1,NA,1.25,These are both,gorilla,NA,warmup
132,spider monkey,NA,NA,5,images/gorilla.jpg,spider monkey,This is a,no,1,primates,patricia,gorilla,yes,Please label the pictures below.,NA,NA,34,NA,NA,images/spidermonkey.jpg,apes,NA,graduated_college,English,female,NA,monkeys|apes|primates,NA,2,1564588479038,2,NA,1.25,These are both,gorilla,NA,warmup
132,daisy,NA,NA,5,images/sunflower.png,daisy,This is a,no,1,flowers,patricia,sunflower,yes,Please label the pictures below.,NA,NA,34,NA,NA,images/daisy.png,flowers,NA,graduated_college,English,female,NA,flowers,NA,3,1564588479038,1,NA,1.25,These are both,sunflower,NA,warmup
132,NA,big,images/flower-parade-small.png,5,NA,NA,That's a big,no,1,flowers,patricia,NA,yes,Another plant belongs to the group.,prenominal,You say to your friend:,34,daisy,NA,NA,NA,small,graduated_college,English,female,NA,NA,You see a group of plants.,1,1564588479038,NA,images/daisy-b.png,1.25,NA,NA,incongruent,main
132,NA,big,images/monkey-parade.png,5,NA,NA,That's a big,no,1,primates,patricia,NA,yes,Another animal belongs to the group.,prenominal,You say to your friend:,34,gorilla,NA,NA,NA,big,graduated_college,English,female,NA,NA,You see a group of animals.,2,1564588479038,NA,images/gorilla.jpg,1.25,NA,NA,congruent,main
132,NA,big,images/dog_parade.png,5,NA,NA,That's a big,no,1,dogs,patricia,NA,yes,Another animal belongs to the group.,prenominal,You say to your friend:,34,great dane,NA,NA,NA,big,graduated_college,English,female,NA,NA,You see a group of animals.,3,1564588479038,NA,images/great-dane.jpg,1.25,NA,NA,congruent,main
132,swan,NA,NA,5,images/colibri.jpg,swan,This is a,no,1,birds,patricia,hummingbird,yes,Please label the pictures below.,NA,NA,34,NA,NA,images/swan.jpg,birds,NA,graduated_college,English,female,NA,birds,NA,1,1564588479038,1,NA,1.25,These are both,hummingbird,NA,warmup
132,red wood tree,NA,NA,5,images/bonsai.jpg,redwood|sequoia,This is a,no,1,trees,patricia,bonsai,yes,Please label the pictures below.,NA,NA,34,NA,NA,images/sequoia.jpg,trees,NA,graduated_college,English,female,NA,trees,NA,2,1564588479038,1,NA,1.25,These are both,bonzi tree,NA,warmup
132,redwood,NA,NA,5,images/bonsai.jpg,redwood|sequoia,This is a,no,1,trees,patricia,bonsai,yes,Please label the pictures below.,NA,NA,34,NA,NA,images/sequoia.jpg,trees,NA,graduated_college,English,female,NA,trees,NA,2,1564588479038,2,NA,1.25,These are both,bonsai,NA,warmup
132,merlin,NA,NA,5,images/goldfish.png,swordfish,This is a,no,1,fish,patricia,goldfish,yes,Please label the pictures below.,NA,NA,34,NA,NA,images/swordfish.jpg,fish,NA,graduated_college,English,female,NA,fish,NA,3,1564588479038,1,NA,1.25,These are both,goldfish,NA,warmup
132,swordfish,NA,NA,5,images/goldfish.png,swordfish,This is a,no,1,fish,patricia,goldfish,yes,Please label the pictures below.,NA,NA,34,NA,NA,images/swordfish.jpg,fish,NA,graduated_college,English,female,NA,fish,NA,3,1564588479038,2,NA,1.25,These are both,goldfish,NA,warmup
132,NA,big,images/tree-parade.png,5,NA,NA,That's a big,no,1,trees,patricia,NA,yes,Another plant belongs to the group.,prenominal,You say to your friend:,34,bonsai,NA,NA,NA,small,graduated_college,English,female,NA,NA,You see a group of plants.,1,1564588479038,NA,images/bonsai-b.png,1.25,NA,NA,incongruent,main
132,NA,small,images/bird-parade-small.png,5,NA,NA,That's a small,no,1,birds,patricia,NA,yes,Another animal bleongs to the group.,prenominal,You say to your friend:,34,bird,NA,NA,NA,small,graduated_college,English,female,NA,NA,You see a group of animals.,2,1564588479038,NA,images/colibri.jpg,1.25,NA,NA,congruent,main
132,NA,small,images/fish-parade.png,5,NA,NA,That's a small,no,1,fish,patricia,NA,yes,Another animal belongs to the group.,prenominal,You say to your friend:,34,swordfish,NA,NA,NA,big,graduated_college,English,female,NA,NA,You see a group of animals.,3,1564588479038,NA,images/swordfish-s.jpg,1.25,NA,NA,incongruent,main
134,Swan,NA,NA,5,images/colibri.jpg,swan,This is a,None.,2,birds,Barbara,hummingbird,yes,Please label the pictures below.,NA,NA,46,NA,None at this time.,images/swan.jpg,birds,NA,graduated_high_school,English,female,NA,birds,NA,1,1564588743865,1,NA,1.1,These are both,Hummingbird,NA,warmup
134,daisy,NA,NA,5,images/sunflower.png,daisy,This is a,None.,2,flowers,Barbara,sunflower,yes,Please label the pictures below.,NA,NA,46,NA,None at this time.,images/daisy.png,flowers,NA,graduated_high_school,English,female,NA,flowers,NA,2,1564588743865,1,NA,1.1,These are both,dandelion,NA,warmup
134,daisy,NA,NA,5,images/sunflower.png,daisy,This is a,None.,2,flowers,Barbara,sunflower,yes,Please label the pictures below.,NA,NA,46,NA,None at this time.,images/daisy.png,flowers,NA,graduated_high_school,English,female,NA,flowers,NA,2,1564588743865,2,NA,1.1,These are both,sunflower,NA,warmup
134,swordfish,NA,NA,5,images/goldfish.png,swordfish,This is a,None.,2,fish,Barbara,goldfish,yes,Please label the pictures below.,NA,NA,46,NA,None at this time.,images/swordfish.jpg,fish,NA,graduated_high_school,English,female,NA,fish,NA,3,1564588743865,1,NA,1.1,These are both,goldfish,NA,warmup
134,NA,small,images/bird-parade-small.png,5,NA,NA,That,None.,2,birds,Barbara,NA,yes,Another animal bleongs to the group.,predicative,You say to your friend:,46,hummingbird,None at this time.,NA,NA,small,graduated_high_school,English,female,NA,NA,You see a group of animals.,1,1564588743865,NA,images/colibri.jpg,1.1,is small.,NA,congruent,main
134,NA,small,images/flower-parade-small.png,5,NA,NA,That,None.,2,flowers,Barbara,NA,yes,Another plant belongs to the group.,predicative,You say to your friend:,46,daisy,None at this time.,NA,NA,small,graduated_high_school,English,female,NA,NA,You see a group of plants.,2,1564588743865,NA,images/daisy.png,1.1,is small.,NA,congruent,main
134,NA,small,images/fish-parade.png,5,NA,NA,That,None.,2,fish,Barbara,NA,yes,Another animal belongs to the group.,predicative,You say to your friend:,46,swordfish,None at this time.,NA,NA,big,graduated_high_school,English,female,NA,NA,You see a group of animals.,3,1564588743865,NA,images/swordfish-s.jpg,1.1,is small.,NA,incongruent,main
134,chihuahua,NA,NA,5,images/great-dane.jpg,chihuahua,This is a,None.,2,dogs,Barbara,great dane,yes,Please label the pictures below.,NA,NA,46,NA,None at this time.,images/chihuahua.jpg,dogs,NA,graduated_high_school,English,female,NA,dogs,NA,1,1564588743865,1,NA,1.1,These are both,great dane,NA,warmup
134,chimpanzee,NA,NA,5,images/gorilla.jpg,spider monkey,This is a,None.,2,primates,Barbara,gorilla,yes,Please label the pictures below.,NA,NA,46,NA,None at this time.,images/spidermonkey.jpg,primates,NA,graduated_high_school,English,female,NA,monkeys|apes|primates,NA,2,1564588743865,1,NA,1.1,These are both,gorilla,NA,warmup
134,spider monkey,NA,NA,5,images/gorilla.jpg,spider monkey,This is a,None.,2,primates,Barbara,gorilla,yes,Please label the pictures below.,NA,NA,46,NA,None at this time.,images/spidermonkey.jpg,primates,NA,graduated_high_school,English,female,NA,monkeys|apes|primates,NA,2,1564588743865,2,NA,1.1,These are both,gorilla,NA,warmup
134,redwood,NA,NA,5,images/bonsai.jpg,redwood|sequoia,This is a,None.,2,trees,Barbara,bonsai,yes,Please label the pictures below.,NA,NA,46,NA,None at this time.,images/sequoia.jpg,trees,NA,graduated_high_school,English,female,NA,trees,NA,3,1564588743865,1,NA,1.1,These are both,bonsai,NA,warmup
134,NA,big,images/tree-parade.png,5,NA,NA,That,None.,2,trees,Barbara,NA,yes,Another plant belongs to the group.,predicative,You say to your friend:,46,bonsai,None at this time.,NA,NA,small,graduated_high_school,English,female,NA,NA,You see a group of plants.,1,1564588743865,NA,images/bonsai-b.png,1.1,is big.,NA,incongruent,main
134,NA,small,images/monkey-parade.png,5,NA,NA,That,None.,2,primates,Barbara,NA,yes,Another animal belongs to the group.,predicative,You say to your friend:,46,ape,None at this time.,NA,NA,big,graduated_high_school,English,female,NA,NA,You see a group of animals.,2,1564588743865,NA,images/gorilla_s.jpg,1.1,is small.,NA,incongruent,main
134,NA,big,images/dog_parade.png,5,NA,NA,That,None.,2,dogs,Barbara,NA,yes,Another animal belongs to the group.,predicative,You say to your friend:,46,great dane,None at this time.,NA,NA,big,graduated_high_school,English,female,NA,NA,You see a group of animals.,3,1564588743865,NA,images/great-dane.jpg,1.1,is big.,NA,congruent,main
136,dog,NA,NA,5,images/great-dane.jpg,chihuahua,This is a,NA,2,dogs,mary,great dane,yes,Please label the pictures below.,NA,NA,25,NA,NA,images/chihuahua.jpg,dogs,NA,graduated_college,english,male,NA,dogs,NA,1,1564587402984,1,NA,2,These are both,dog,NA,warmup
136,chihuahua,NA,NA,5,images/great-dane.jpg,chihuahua,This is a,NA,2,dogs,mary,great dane,yes,Please label the pictures below.,NA,NA,25,NA,NA,images/chihuahua.jpg,dogs,NA,graduated_college,english,male,NA,dogs,NA,1,1564587402984,2,NA,2,These are both,great dane,NA,warmup
136,goose,NA,NA,5,images/colibri.jpg,swan,This is a,NA,2,birds,mary,hummingbird,yes,Please label the pictures below.,NA,NA,25,NA,NA,images/swan.jpg,birds,NA,graduated_college,english,male,NA,birds,NA,2,1564587402984,1,NA,2,These are both,rrrr,NA,warmup
136,swan,NA,NA,5,images/colibri.jpg,swan,This is a,NA,2,birds,mary,hummingbird,yes,Please label the pictures below.,NA,NA,25,NA,NA,images/swan.jpg,birds,NA,graduated_college,english,male,NA,birds,NA,2,1564587402984,2,NA,2,These are both,hummingbird,NA,warmup
136,er3r3,NA,NA,5,images/sunflower.png,daisy,This is a,NA,2,flowers,mary,sunflower,yes,Please label the pictures below.,NA,NA,25,NA,NA,images/daisy.png,333,NA,graduated_college,english,male,NA,flowers,NA,3,1564587402984,1,NA,2,These are both,3rrr,NA,warmup
136,daisy,NA,NA,5,images/sunflower.png,daisy,This is a,NA,2,flowers,mary,sunflower,yes,Please label the pictures below.,NA,NA,25,NA,NA,images/daisy.png,flowers,NA,graduated_college,english,male,NA,flowers,NA,3,1564587402984,2,NA,2,These are both,sunflower,NA,warmup
136,NA,small,images/dog_parade_small.png,5,NA,NA,That,NA,2,dogs,mary,NA,yes,Another animal belongs to the group.,predicative,You say to your friend:,25,dog,NA,NA,NA,small,graduated_college,english,male,NA,NA,You see a group of animals.,1,1564587402984,NA,images/chihuahua.jpg,2,is small.,NA,congruent,main
136,NA,small,images/bird-parade.png,5,NA,NA,That,NA,2,birds,mary,NA,yes,Another animal belongs to the group.,predicative,You say to your friend:,25,bird,NA,NA,NA,big,graduated_college,english,male,NA,NA,You see a group of animals.,2,1564587402984,NA,images/swan-s.jpg,2,is small.,NA,incongruent,main
136,NA,big,images/flower-parade.png,5,NA,NA,That,NA,2,flowers,mary,NA,yes,Another plant belongs to the group.,predicative,You say to your friend:,25,flower,NA,NA,NA,big,graduated_college,english,male,NA,NA,You see a group of plants.,3,1564587402984,NA,images/sunflower.png,2,is big.,NA,congruent,main
136,444,NA,NA,5,images/goldfish.png,swordfish,This is a,NA,2,fish,mary,goldfish,yes,Please label the pictures below.,NA,NA,25,NA,NA,images/swordfish.jpg,fish,NA,graduated_college,english,male,NA,fish,NA,1,1564587402984,1,NA,2,These are both,4ty4y,NA,warmup
136,swordfish,NA,NA,5,images/goldfish.png,swordfish,This is a,NA,2,fish,mary,goldfish,yes,Please label the pictures below.,NA,NA,25,NA,NA,images/swordfish.jpg,fish,NA,graduated_college,english,male,NA,fish,NA,1,1564587402984,2,NA,2,These are both,goldfish,NA,warmup
136,derer,NA,NA,5,images/gorilla.jpg,spider monkey,This is a,NA,2,primates,mary,gorilla,yes,Please label the pictures below.,NA,NA,25,NA,NA,images/spidermonkey.jpg,mammal,NA,graduated_college,english,male,NA,monkeys|apes|primates,NA,2,1564587402984,1,NA,2,These are both,4444,NA,warmup
136,spider monkey,NA,NA,5,images/gorilla.jpg,spider monkey,This is a,NA,2,primates,mary,gorilla,yes,Please label the pictures below.,NA,NA,25,NA,NA,images/spidermonkey.jpg,monkeys,NA,graduated_college,english,male,NA,monkeys|apes|primates,NA,2,1564587402984,2,NA,2,These are both,gorilla,NA,warmup
136,ffefef,NA,NA,5,images/bonsai.jpg,redwood|sequoia,This is a,NA,2,trees,mary,bonsai,yes,Please label the pictures below.,NA,NA,25,NA,NA,images/sequoia.jpg,ggg,NA,graduated_college,english,male,NA,trees,NA,3,1564587402984,1,NA,2,These are both,gggg,NA,warmup
136,redwood,NA,NA,5,images/bonsai.jpg,redwood|sequoia,This is a,NA,2,trees,mary,bonsai,yes,Please label the pictures below.,NA,NA,25,NA,NA,images/sequoia.jpg,trees,NA,graduated_college,english,male,NA,trees,NA,3,1564587402984,2,NA,2,These are both,bonsai,NA,warmup
136,NA,small,images/tree-parade.png,5,NA,NA,That,NA,2,trees,mary,NA,yes,Another plant belongs to the group.,predicative,You say to your friend:,25,tree,NA,NA,NA,big,graduated_college,english,male,NA,NA,You see a group of plants.,1,1564587402984,NA,images/sequoia-s.jpg,2,is small.,NA,incongruent,main
136,NA,big,images/fish-parade.png,5,NA,NA,That,NA,2,fish,mary,NA,yes,Another animal belongs to the group.,predicative,You say to your friend:,25,fish,NA,NA,NA,small,graduated_college,english,male,NA,NA,You see a group of animals.,2,1564587402984,NA,images/goldfish-b.png,2,is big.,NA,incongruent,main
136,NA,small,images/monkey-parade-small.png,5,NA,NA,That,NA,2,primates,mary,NA,yes,Another animal belongs to the group.,predicative,You say to your friend:,25,monkey,NA,NA,NA,small,graduated_college,english,male,NA,NA,You see a group of animals.,3,1564587402984,NA,images/spidermonkey.jpg,2,is small.,NA,congruent,main
137,sword fish,NA,NA,5,images/goldfish.png,swordfish,This is a,No,2,fish,jessica,goldfish,yes,Please label the pictures below.,NA,NA,35,NA,none,images/swordfish.jpg,fish,NA,graduated_college,English,NA,NA,fish,NA,1,1564588801582,1,NA,1.1,These are both,gold fish,NA,warmup
137,swordfish,NA,NA,5,images/goldfish.png,swordfish,This is a,No,2,fish,jessica,goldfish,yes,Please label the pictures below.,NA,NA,35,NA,none,images/swordfish.jpg,fish,NA,graduated_college,English,NA,NA,fish,NA,1,1564588801582,2,NA,1.1,These are both,goldfish,NA,warmup
137,Spider monkey,NA,NA,5,images/gorilla.jpg,spider monkey,This is a,No,2,primates,jessica,gorilla,yes,Please label the pictures below.,NA,NA,35,NA,none,images/spidermonkey.jpg,monkeys,NA,graduated_college,English,NA,NA,monkeys|apes|primates,NA,2,1564588801582,1,NA,1.1,These are both,gorilla,NA,warmup
137,swan,NA,NA,5,images/colibri.jpg,swan,This is a,No,2,birds,jessica,hummingbird,yes,Please label the pictures below.,NA,NA,35,NA,none,images/swan.jpg,bird,NA,graduated_college,English,NA,NA,birds,NA,3,1564588801582,1,NA,1.1,These are both,woodpecker,NA,warmup
137,swan,NA,NA,5,images/colibri.jpg,swan,This is a,No,2,birds,jessica,hummingbird,yes,Please label the pictures below.,NA,NA,35,NA,none,images/swan.jpg,birds,NA,graduated_college,English,NA,NA,birds,NA,3,1564588801582,2,NA,1.1,These are both,woodpecker,NA,warmup
137,swan,NA,NA,5,images/colibri.jpg,swan,This is a,No,2,birds,jessica,hummingbird,yes,Please label the pictures below.,NA,NA,35,NA,none,images/swan.jpg,birds,NA,graduated_college,English,NA,NA,birds,NA,3,1564588801582,3,NA,1.1,These are both,woodpecker,NA,warmup
137,swan,NA,NA,5,images/colibri.jpg,swan,This is a,No,2,birds,jessica,hummingbird,yes,Please label the pictures below.,NA,NA,35,NA,none,images/swan.jpg,birds,NA,graduated_college,English,NA,NA,birds,NA,3,1564588801582,4,NA,1.1,These are both,woodpecker,NA,warmup
137,swan,NA,NA,5,images/colibri.jpg,swan,This is a,No,2,birds,jessica,hummingbird,yes,Please label the pictures below.,NA,NA,35,NA,none,images/swan.jpg,birds,NA,graduated_college,English,NA,NA,birds,NA,3,1564588801582,5,NA,1.1,These are both,woodpecker,NA,warmup
137,swan,NA,NA,5,images/colibri.jpg,swan,This is a,No,2,birds,jessica,hummingbird,yes,Please label the pictures below.,NA,NA,35,NA,none,images/swan.jpg,birds,NA,graduated_college,English,NA,NA,birds,NA,3,1564588801582,6,NA,1.1,These are both,woodpecker,NA,warmup
137,swan,NA,NA,5,images/colibri.jpg,swan,This is a,No,2,birds,jessica,hummingbird,yes,Please label the pictures below.,NA,NA,35,NA,none,images/swan.jpg,birds,NA,graduated_college,English,NA,NA,birds,NA,3,1564588801582,7,NA,1.1,These are both,woodpecker,NA,warmup
137,swan,NA,NA,5,images/colibri.jpg,swan,This is a,No,2,birds,jessica,hummingbird,yes,Please label the pictures below.,NA,NA,35,NA,none,images/swan.jpg,birds,NA,graduated_college,English,NA,NA,birds,NA,3,1564588801582,8,NA,1.1,These are both,woodpecker,NA,warmup
137,swan,NA,NA,5,images/colibri.jpg,swan,This is a,No,2,birds,jessica,hummingbird,yes,Please label the pictures below.,NA,NA,35,NA,none,images/swan.jpg,birds,NA,graduated_college,English,NA,NA,birds,NA,3,1564588801582,9,NA,1.1,These are both,woodpecker,NA,warmup
137,swan,NA,NA,5,images/colibri.jpg,swan,This is a,No,2,birds,jessica,hummingbird,yes,Please label the pictures below.,NA,NA,35,NA,none,images/swan.jpg,birds,NA,graduated_college,English,NA,NA,birds,NA,3,1564588801582,10,NA,1.1,These are both,woodpecker,NA,warmup
137,swan,NA,NA,5,images/colibri.jpg,swan,This is a,No,2,birds,jessica,hummingbird,yes,Please label the pictures below.,NA,NA,35,NA,none,images/swan.jpg,birds,NA,graduated_college,English,NA,NA,birds,NA,3,1564588801582,11,NA,1.1,These are both,woodpecker,NA,warmup
137,swan,NA,NA,5,images/colibri.jpg,swan,This is a,No,2,birds,jessica,hummingbird,yes,Please label the pictures below.,NA,NA,35,NA,none,images/swan.jpg,birds,NA,graduated_college,English,NA,NA,birds,NA,3,1564588801582,12,NA,1.1,These are both,woodpecker,NA,warmup
137,swan,NA,NA,5,images/colibri.jpg,swan,This is a,No,2,birds,jessica,hummingbird,yes,Please label the pictures below.,NA,NA,35,NA,none,images/swan.jpg,birds,NA,graduated_college,English,NA,NA,birds,NA,3,1564588801582,13,NA,1.1,These are both,hummingbird,NA,warmup
137,NA,small,images/bird-parade.png,5,NA,NA,That's a small,No,2,birds,jessica,NA,yes,Another animal belongs to the group.,prenominal,You say to your friend:,35,swan,none,NA,NA,big,graduated_college,English,NA,NA,NA,You see a group of animals.,1,1564588801582,NA,images/swan-s.jpg,1.1,NA,NA,incongruent,main
137,NA,big,images/fish-parade.png,5,NA,NA,That's a big,No,2,fish,jessica,NA,yes,Another animal belongs to the group.,prenominal,You say to your friend:,35,goldfish,none,NA,NA,small,graduated_college,English,NA,NA,NA,You see a group of animals.,2,1564588801582,NA,images/goldfish-b.png,1.1,NA,NA,incongruent,main
137,NA,small,images/monkey-parade-small.png,5,NA,NA,That's a small,No,2,primates,jessica,NA,yes,Another animal belongs to the group.,prenominal,You say to your friend:,35,spider monkey,none,NA,NA,small,graduated_college,English,NA,NA,NA,You see a group of animals.,3,1564588801582,NA,images/spidermonkey.jpg,1.1,NA,NA,congruent,main
137,sequoia,NA,NA,5,images/bonsai.jpg,redwood|sequoia,This is a,No,2,trees,jessica,bonsai,yes,Please label the pictures below.,NA,NA,35,NA,none,images/sequoia.jpg,trees,NA,graduated_college,English,NA,NA,trees,NA,1,1564588801582,1,NA,1.1,These are both,bonsai,NA,warmup
137,chihuahua,NA,NA,5,images/great-dane.jpg,chihuahua,This is a,No,2,dogs,jessica,great dane,yes,Please label the pictures below.,NA,NA,35,NA,none,images/chihuahua.jpg,dogs,NA,graduated_college,English,NA,NA,dogs,NA,2,1564588801582,1,NA,1.1,These are both,great dane,NA,warmup
137,Daisy,NA,NA,5,images/sunflower.png,daisy,This is a,No,2,flowers,jessica,sunflower,yes,Please label the pictures below.,NA,NA,35,NA,none,images/daisy.png,flowers,NA,graduated_college,English,NA,NA,flowers,NA,3,1564588801582,1,NA,1.1,These are both,sunflower,NA,warmup
137,NA,big,images/dog_parade.png,5,NA,NA,That's a big,No,2,dogs,jessica,NA,yes,Another animal belongs to the group.,prenominal,You say to your friend:,35,great dane,none,NA,NA,big,graduated_college,English,NA,NA,NA,You see a group of animals.,1,1564588801582,NA,images/great-dane.jpg,1.1,NA,NA,congruent,main
137,NA,big,images/flower-parade.png,5,NA,NA,That's a big,No,2,flowers,jessica,NA,yes,Another plant belongs to the group.,prenominal,You say to your friend:,35,sunflower,none,NA,NA,big,graduated_college,English,NA,NA,NA,You see a group of plants.,2,1564588801582,NA,images/sunflower.png,1.1,NA,NA,congruent,main
137,NA,big,images/tree-parade.png,5,NA,NA,That's a big,No,2,trees,jessica,NA,yes,Another plant belongs to the group.,prenominal,You say to your friend:,35,bonsai,none,NA,NA,small,graduated_college,English,NA,NA,NA,You see a group of plants.,3,1564588801582,NA,images/bonsai-b.png,1.1,NA,NA,incongruent,main
138,white flower,NA,NA,5,images/sunflower.png,daisy,This is a,no,2,flowers,susan,sunflower,yes,Please label the pictures below.,NA,NA,23,NA,great experiment!,images/daisy.png,flowers,NA,graduated_college,tagalog,female,NA,flowers,NA,1,1564588959441,1,NA,1.5,These are both,sunflower,NA,warmup
138,daisy,NA,NA,5,images/sunflower.png,daisy,This is a,no,2,flowers,susan,sunflower,yes,Please label the pictures below.,NA,NA,23,NA,great experiment!,images/daisy.png,flowers,NA,graduated_college,tagalog,female,NA,flowers,NA,1,1564588959441,2,NA,1.5,These are both,sunflower,NA,warmup
138,big red tree,NA,NA,5,images/bonsai.jpg,redwood|sequoia,This is a,no,2,trees,susan,bonsai,yes,Please label the pictures below.,NA,NA,23,NA,great experiment!,images/sequoia.jpg,trees,NA,graduated_college,tagalog,female,NA,trees,NA,2,1564588959441,1,NA,1.5,These are both,bonsai,NA,warmup
138,"redwood,sequoia",NA,NA,5,images/bonsai.jpg,redwood|sequoia,This is a,no,2,trees,susan,bonsai,yes,Please label the pictures below.,NA,NA,23,NA,great experiment!,images/sequoia.jpg,trees,NA,graduated_college,tagalog,female,NA,trees,NA,2,1564588959441,2,NA,1.5,These are both,bonsai,NA,warmup
138,"redwood,sequoia",NA,NA,5,images/bonsai.jpg,redwood|sequoia,This is a,no,2,trees,susan,bonsai,yes,Please label the pictures below.,NA,NA,23,NA,great experiment!,images/sequoia.jpg,trees,NA,graduated_college,tagalog,female,NA,trees,NA,2,1564588959441,3,NA,1.5,These are both,bonsai,NA,warmup
138,"redwood,sequoia",NA,NA,5,images/bonsai.jpg,redwood|sequoia,This is a,no,2,trees,susan,bonsai,yes,Please label the pictures below.,NA,NA,23,NA,great experiment!,images/sequoia.jpg,trees,NA,graduated_college,tagalog,female,NA,trees,NA,2,1564588959441,4,NA,1.5,These are both,bonsai,NA,warmup
138,"redwood,sequoia",NA,NA,5,images/bonsai.jpg,redwood|sequoia,This is a,no,2,trees,susan,bonsai,yes,Please label the pictures below.,NA,NA,23,NA,great experiment!,images/sequoia.jpg,trees,NA,graduated_college,tagalog,female,NA,trees,NA,2,1564588959441,5,NA,1.5,These are both,bonsai,NA,warmup
138,"redwood,sequoia",NA,NA,5,images/bonsai.jpg,redwood|sequoia,This is a,no,2,trees,susan,bonsai,yes,Please label the pictures below.,NA,NA,23,NA,great experiment!,images/sequoia.jpg,trees,NA,graduated_college,tagalog,female,NA,trees,NA,2,1564588959441,6,NA,1.5,These are both,bonsai,NA,warmup
138,"redwood,sequoia",NA,NA,5,images/bonsai.jpg,redwood|sequoia,This is a,no,2,trees,susan,bonsai,yes,Please label the pictures below.,NA,NA,23,NA,great experiment!,images/sequoia.jpg,trees,NA,graduated_college,tagalog,female,NA,trees,NA,2,1564588959441,7,NA,1.5,These are both,bonsai,NA,warmup
138,"redwood,sequoia",NA,NA,5,images/bonsai.jpg,redwood|sequoia,This is a,no,2,trees,susan,bonsai,yes,Please label the pictures below.,NA,NA,23,NA,great experiment!,images/sequoia.jpg,trees,NA,graduated_college,tagalog,female,NA,trees,NA,2,1564588959441,8,NA,1.5,These are both,bonsai,NA,warmup
138,"redwood,sequoia",NA,NA,5,images/bonsai.jpg,redwood|sequoia,This is a,no,2,trees,susan,bonsai,yes,Please label the pictures below.,NA,NA,23,NA,great experiment!,images/sequoia.jpg,trees,NA,graduated_college,tagalog,female,NA,trees,NA,2,1564588959441,9,NA,1.5,These are both,bonsai,NA,warmup
138,"redwood,sequoia",NA,NA,5,images/bonsai.jpg,redwood|sequoia,This is a,no,2,trees,susan,bonsai,yes,Please label the pictures below.,NA,NA,23,NA,great experiment!,images/sequoia.jpg,trees,NA,graduated_college,tagalog,female,NA,trees,NA,2,1564588959441,10,NA,1.5,These are both,bonsai,NA,warmup
138,"redwood,sequoia",NA,NA,5,images/bonsai.jpg,redwood|sequoia,This is a,no,2,trees,susan,bonsai,yes,Please label the pictures below.,NA,NA,23,NA,great experiment!,images/sequoia.jpg,trees,NA,graduated_college,tagalog,female,NA,trees,NA,2,1564588959441,11,NA,1.5,These are both,bonsai,NA,warmup
138,"redwood,sequoia",NA,NA,5,images/bonsai.jpg,redwood|sequoia,This is a,no,2,trees,susan,bonsai,yes,Please label the pictures below.,NA,NA,23,NA,great experiment!,images/sequoia.jpg,trees,NA,graduated_college,tagalog,female,NA,trees,NA,2,1564588959441,12,NA,1.5,These are both,bonsai,NA,warmup
138,"redwood,sequoia",NA,NA,5,images/bonsai.jpg,redwood|sequoia,This is a,no,2,trees,susan,bonsai,yes,Please label the pictures below.,NA,NA,23,NA,great experiment!,images/sequoia.jpg,trees,NA,graduated_college,tagalog,female,NA,trees,NA,2,1564588959441,13,NA,1.5,These are both,bonsai,NA,warmup
138,"redwood,sequoia",NA,NA,5,images/bonsai.jpg,redwood|sequoia,This is a,no,2,trees,susan,bonsai,yes,Please label the pictures below.,NA,NA,23,NA,great experiment!,images/sequoia.jpg,trees,NA,graduated_college,tagalog,female,NA,trees,NA,2,1564588959441,14,NA,1.5,These are both,bonsai,NA,warmup
138,redwood,NA,NA,5,images/bonsai.jpg,redwood|sequoia,This is a,no,2,trees,susan,bonsai,yes,Please label the pictures below.,NA,NA,23,NA,great experiment!,images/sequoia.jpg,trees,NA,graduated_college,tagalog,female,NA,trees,NA,2,1564588959441,15,NA,1.5,These are both,bonsai,NA,warmup
138,sword fish,NA,NA,5,images/goldfish.png,swordfish,This is a,no,2,fish,susan,goldfish,yes,Please label the pictures below.,NA,NA,23,NA,great experiment!,images/swordfish.jpg,fish,NA,graduated_college,tagalog,female,NA,fish,NA,3,1564588959441,1,NA,1.5,These are both,gold fish,NA,warmup
138,swordfish,NA,NA,5,images/goldfish.png,swordfish,This is a,no,2,fish,susan,goldfish,yes,Please label the pictures below.,NA,NA,23,NA,great experiment!,images/swordfish.jpg,fish,NA,graduated_college,tagalog,female,NA,fish,NA,3,1564588959441,2,NA,1.5,These are both,goldfish,NA,warmup
138,NA,small,images/flower-parade-small.png,5,NA,NA,That's a small,no,2,flowers,susan,NA,yes,Another plant belongs to the group.,prenominal,You say to your friend:,23,daisy,great experiment!,NA,NA,small,graduated_college,tagalog,female,NA,NA,You see a group of plants.,1,1564588959441,NA,images/daisy.png,1.5,NA,NA,congruent,main
138,NA,small,images/fish-parade.png,5,NA,NA,That's a small,no,2,fish,susan,NA,yes,Another animal belongs to the group.,prenominal,You say to your friend:,23,swordfish,great experiment!,NA,NA,big,graduated_college,tagalog,female,NA,NA,You see a group of animals.,2,1564588959441,NA,images/swordfish-s.jpg,1.5,NA,NA,incongruent,main
138,NA,big,images/tree-parade.png,5,NA,NA,That's a big,no,2,trees,susan,NA,yes,Another plant belongs to the group.,prenominal,You say to your friend:,23,bonsai,great experiment!,NA,NA,small,graduated_college,tagalog,female,NA,NA,You see a group of plants.,3,1564588959441,NA,images/bonsai-b.png,1.5,NA,NA,incongruent,main
138,chimpanzee,NA,NA,5,images/gorilla.jpg,spider monkey,This is a,no,2,primates,susan,gorilla,yes,Please label the pictures below.,NA,NA,23,NA,great experiment!,images/spidermonkey.jpg,monkeys,NA,graduated_college,tagalog,female,NA,monkeys|apes|primates,NA,1,1564588959441,1,NA,1.5,These are both,gorilla,NA,warmup
138,spider monkey,NA,NA,5,images/gorilla.jpg,spider monkey,This is a,no,2,primates,susan,gorilla,yes,Please label the pictures below.,NA,NA,23,NA,great experiment!,images/spidermonkey.jpg,monkeys,NA,graduated_college,tagalog,female,NA,monkeys|apes|primates,NA,1,1564588959441,2,NA,1.5,These are both,gorilla,NA,warmup
138,swan,NA,NA,5,images/colibri.jpg,swan,This is a,no,2,birds,susan,hummingbird,yes,Please label the pictures below.,NA,NA,23,NA,great experiment!,images/swan.jpg,bird,NA,graduated_college,tagalog,female,NA,birds,NA,2,1564588959441,1,NA,1.5,These are both,hummingbird,NA,warmup
138,swan,NA,NA,5,images/colibri.jpg,swan,This is a,no,2,birds,susan,hummingbird,yes,Please label the pictures below.,NA,NA,23,NA,great experiment!,images/swan.jpg,birds,NA,graduated_college,tagalog,female,NA,birds,NA,2,1564588959441,2,NA,1.5,These are both,hummingbird,NA,warmup
138,chihuahua,NA,NA,5,images/great-dane.jpg,chihuahua,This is a,no,2,dogs,susan,great dane,yes,Please label the pictures below.,NA,NA,23,NA,great experiment!,images/chihuahua.jpg,dogs,NA,graduated_college,tagalog,female,NA,dogs,NA,3,1564588959441,1,NA,1.5,These are both,boxer,NA,warmup
138,chihuahua,NA,NA,5,images/great-dane.jpg,chihuahua,This is a,no,2,dogs,susan,great dane,yes,Please label the pictures below.,NA,NA,23,NA,great experiment!,images/chihuahua.jpg,dogs,NA,graduated_college,tagalog,female,NA,dogs,NA,3,1564588959441,2,NA,1.5,These are both,great dane,NA,warmup
138,NA,big,images/dog_parade.png,5,NA,NA,That's a big,no,2,dogs,susan,NA,yes,Another animal belongs to the group.,prenominal,You say to your friend:,23,great dane,great experiment!,NA,NA,big,graduated_college,tagalog,female,NA,NA,You see a group of animals.,1,1564588959441,NA,images/great-dane.jpg,1.5,NA,NA,congruent,main
138,NA,big,images/bird-parade.png,5,NA,NA,That's a big,no,2,birds,susan,NA,yes,Another animal belongs to the group.,prenominal,You say to your friend:,23,swan,great experiment!,NA,NA,big,graduated_college,tagalog,female,NA,NA,You see a group of animals.,2,1564588959441,NA,images/swan.jpg,1.5,NA,NA,congruent,main
138,NA,big,images/monkey-parade-small.png,5,NA,NA,That's a big,no,2,primates,susan,NA,yes,Another animal belongs to the group.,prenominal,You say to your friend:,23,spider monkey,great experiment!,NA,NA,small,graduated_college,tagalog,female,NA,NA,You see a group of animals.,3,1564588959441,NA,images/spidermonkey-b.jpg,1.5,NA,NA,incongruent,main
139,gaint sequoia clipart,NA,NA,5,images/bonsai.jpg,redwood|sequoia,This is a,No,2,trees,patricia,bonsai,yes,Please label the pictures below.,NA,NA,48,NA,None,images/sequoia.jpg,tree,NA,graduated_college,English,female,NA,trees,NA,1,1564588937356,1,NA,1.1,These are both,plant,NA,warmup
139,sequoia,NA,NA,5,images/bonsai.jpg,redwood|sequoia,This is a,No,2,trees,patricia,bonsai,yes,Please label the pictures below.,NA,NA,48,NA,None,images/sequoia.jpg,trees,NA,graduated_college,English,female,NA,trees,NA,1,1564588937356,2,NA,1.1,These are both,bonsai,NA,warmup
139,swordfish,NA,NA,5,images/goldfish.png,swordfish,This is a,No,2,fish,patricia,goldfish,yes,Please label the pictures below.,NA,NA,48,NA,None,images/swordfish.jpg,fish,NA,graduated_college,English,female,NA,fish,NA,2,1564588937356,1,NA,1.1,These are both,goldfish,NA,warmup
139,chihuahua,NA,NA,5,images/great-dane.jpg,chihuahua,This is a,No,2,dogs,patricia,great dane,yes,Please label the pictures below.,NA,NA,48,NA,None,images/chihuahua.jpg,Dogs,NA,graduated_college,English,female,NA,dogs,NA,3,1564588937356,1,NA,1.1,These are both,dobermann,NA,warmup
139,chihuahua,NA,NA,5,images/great-dane.jpg,chihuahua,This is a,No,2,dogs,patricia,great dane,yes,Please label the pictures below.,NA,NA,48,NA,None,images/chihuahua.jpg,Dogs,NA,graduated_college,English,female,NA,dogs,NA,3,1564588937356,2,NA,1.1,These are both,great dane,NA,warmup
139,NA,small,images/tree-parade.png,5,NA,NA,That's a small,No,2,trees,patricia,NA,yes,Another plant belongs to the group.,prenominal,You say to your friend:,48,sequoia,None,NA,NA,big,graduated_college,English,female,NA,NA,You see a group of plants.,1,1564588937356,NA,images/sequoia-s.jpg,1.1,NA,NA,incongruent,main
139,NA,big,images/fish-parade.png,5,NA,NA,That's a big,No,2,fish,patricia,NA,yes,Another animal belongs to the group.,prenominal,You say to your friend:,48,goldfish,None,NA,NA,small,graduated_college,English,female,NA,NA,You see a group of animals.,2,1564588937356,NA,images/goldfish-b.png,1.1,NA,NA,incongruent,main
139,NA,big,images/dog_parade_small.png,5,NA,NA,That's a big,No,2,dogs,patricia,NA,yes,Another animal belongs to the group.,prenominal,You say to your friend:,48,chihuahua,None,NA,NA,small,graduated_college,English,female,NA,NA,You see a group of animals.,3,1564588937356,NA,images/chihuahua-b.jpg,1.1,NA,NA,incongruent,main
139,monkey,NA,NA,5,images/gorilla.jpg,spider monkey,This is a,No,2,primates,patricia,gorilla,yes,Please label the pictures below.,NA,NA,48,NA,None,images/spidermonkey.jpg,animal,NA,graduated_college,English,female,NA,monkeys|apes|primates,NA,1,1564588937356,1,NA,1.1,These are both,gorilla,NA,warmup
139,monkey,NA,NA,5,images/gorilla.jpg,spider monkey,This is a,No,2,primates,patricia,gorilla,yes,Please label the pictures below.,NA,NA,48,NA,None,images/spidermonkey.jpg,monkeys,NA,graduated_college,English,female,NA,monkeys|apes|primates,NA,1,1564588937356,2,NA,1.1,These are both,gorilla,NA,warmup
139,spider monkey,NA,NA,5,images/gorilla.jpg,spider monkey,This is a,No,2,primates,patricia,gorilla,yes,Please label the pictures below.,NA,NA,48,NA,None,images/spidermonkey.jpg,monkeys,NA,graduated_college,English,female,NA,monkeys|apes|primates,NA,1,1564588937356,3,NA,1.1,These are both,gorilla,NA,warmup
139,daisy,NA,NA,5,images/sunflower.png,daisy,This is a,No,2,flowers,patricia,sunflower,yes,Please label the pictures below.,NA,NA,48,NA,None,images/daisy.png,flowers,NA,graduated_college,English,female,NA,flowers,NA,2,1564588937356,1,NA,1.1,These are both,sunflower,NA,warmup
139,swan,NA,NA,5,images/colibri.jpg,swan,This is a,No,2,birds,patricia,hummingbird,yes,Please label the pictures below.,NA,NA,48,NA,None,images/swan.jpg,birds,NA,graduated_college,English,female,NA,birds,NA,3,1564588937356,1,NA,1.1,These are both,wood biger,NA,warmup
139,swan,NA,NA,5,images/colibri.jpg,swan,This is a,No,2,birds,patricia,hummingbird,yes,Please label the pictures below.,NA,NA,48,NA,None,images/swan.jpg,birds,NA,graduated_college,English,female,NA,birds,NA,3,1564588937356,2,NA,1.1,These are both,hummingbird,NA,warmup
139,NA,big,images/flower-parade.png,5,NA,NA,That's a big,No,2,flowers,patricia,NA,yes,Another plant belongs to the group.,prenominal,You say to your friend:,48,sunflower,None,NA,NA,big,graduated_college,English,female,NA,NA,You see a group of plants.,1,1564588937356,NA,images/sunflower.png,1.1,NA,NA,congruent,main
139,NA,big,images/monkey-parade.png,5,NA,NA,That's a big,No,2,primates,patricia,NA,yes,Another animal belongs to the group.,prenominal,You say to your friend:,48,gorilla,None,NA,NA,big,graduated_college,English,female,NA,NA,You see a group of animals.,2,1564588937356,NA,images/gorilla.jpg,1.1,NA,NA,congruent,main
139,NA,small,images/bird-parade-small.png,5,NA,NA,That's a small,No,2,birds,patricia,NA,yes,Another animal bleongs to the group.,prenominal,You say to your friend:,48,hummingbird,None,NA,NA,small,graduated_college,English,female,NA,NA,You see a group of animals.,3,1564588937356,NA,images/colibri.jpg,1.1,NA,NA,congruent,main
140,chimp,NA,NA,5,images/gorilla.jpg,spider monkey,This is a,Nope.,2,primates,jennifer,gorilla,yes,Please label the pictures below.,NA,NA,25,NA,Good experiment.,images/spidermonkey.jpg,apes,NA,graduated_high_school,English,male,NA,monkeys|apes|primates,NA,1,1564589077461,1,NA,1,These are both,gorilla,NA,warmup
140,chimp,NA,NA,5,images/gorilla.jpg,spider monkey,This is a,Nope.,2,primates,jennifer,gorilla,yes,Please label the pictures below.,NA,NA,25,NA,Good experiment.,images/spidermonkey.jpg,apes,NA,graduated_high_school,English,male,NA,monkeys|apes|primates,NA,1,1564589077461,2,NA,1,These are both,gorilla,NA,warmup
140,chimp,NA,NA,5,images/gorilla.jpg,spider monkey,This is a,Nope.,2,primates,jennifer,gorilla,yes,Please label the pictures below.,NA,NA,25,NA,Good experiment.,images/spidermonkey.jpg,apes,NA,graduated_high_school,English,male,NA,monkeys|apes|primates,NA,1,1564589077461,3,NA,1,These are both,gorilla,NA,warmup
140,spider monkey,NA,NA,5,images/gorilla.jpg,spider monkey,This is a,Nope.,2,primates,jennifer,gorilla,yes,Please label the pictures below.,NA,NA,25,NA,Good experiment.,images/spidermonkey.jpg,apes,NA,graduated_high_school,English,male,NA,monkeys|apes|primates,NA,1,1564589077461,4,NA,1,These are both,gorilla,NA,warmup
140,tree,NA,NA,5,images/bonsai.jpg,redwood|sequoia,This is a,Nope.,2,trees,jennifer,bonsai,yes,Please label the pictures below.,NA,NA,25,NA,Good experiment.,images/sequoia.jpg,plants,NA,graduated_high_school,English,male,NA,trees,NA,2,1564589077461,1,NA,1,These are both,sappling,NA,warmup
140,redwood,NA,NA,5,images/bonsai.jpg,redwood|sequoia,This is a,Nope.,2,trees,jennifer,bonsai,yes,Please label the pictures below.,NA,NA,25,NA,Good experiment.,images/sequoia.jpg,trees,NA,graduated_high_school,English,male,NA,trees,NA,2,1564589077461,2,NA,1,These are both,bonsai,NA,warmup
140,chihuahua,NA,NA,5,images/great-dane.jpg,chihuahua,This is a,Nope.,2,dogs,jennifer,great dane,yes,Please label the pictures below.,NA,NA,25,NA,Good experiment.,images/chihuahua.jpg,dogs,NA,graduated_high_school,English,male,NA,dogs,NA,3,1564589077461,1,NA,1,These are both,great dane,NA,warmup
140,NA,big,images/tree-parade.png,5,NA,NA,That's a big,Nope.,2,trees,jennifer,NA,yes,Another plant belongs to the group.,prenominal,You say to your friend:,25,bonsai,Good experiment.,NA,NA,small,graduated_high_school,English,male,NA,NA,You see a group of plants.,1,1564589077461,NA,images/bonsai-b.png,1,NA,NA,incongruent,main
140,NA,small,images/monkey-parade-small.png,5,NA,NA,That's a small,Nope.,2,primates,jennifer,NA,yes,Another animal belongs to the group.,prenominal,You say to your friend:,25,monkey,Good experiment.,NA,NA,small,graduated_high_school,English,male,NA,NA,You see a group of animals.,2,1564589077461,NA,images/spidermonkey.jpg,1,NA,NA,congruent,main
140,NA,small,images/dog_parade.png,5,NA,NA,That's a small,Nope.,2,dogs,jennifer,NA,yes,Another animal belongs to the group.,prenominal,You say to your friend:,25,dog,Good experiment.,NA,NA,big,graduated_high_school,English,male,NA,NA,You see a group of animals.,3,1564589077461,NA,images/great-dane-s.jpg,1,NA,NA,incongruent,main
140,needlefish,NA,NA,5,images/goldfish.png,swordfish,This is a,Nope.,2,fish,jennifer,goldfish,yes,Please label the pictures below.,NA,NA,25,NA,Good experiment.,images/swordfish.jpg,fish,NA,graduated_high_school,English,male,NA,fish,NA,1,1564589077461,1,NA,1,These are both,goldfish,NA,warmup
140,swordfish,NA,NA,5,images/goldfish.png,swordfish,This is a,Nope.,2,fish,jennifer,goldfish,yes,Please label the pictures below.,NA,NA,25,NA,Good experiment.,images/swordfish.jpg,fish,NA,graduated_high_school,English,male,NA,fish,NA,1,1564589077461,2,NA,1,These are both,goldfish,NA,warmup
140,swan,NA,NA,5,images/colibri.jpg,swan,This is a,Nope.,2,birds,jennifer,hummingbird,yes,Please label the pictures below.,NA,NA,25,NA,Good experiment.,images/swan.jpg,birds,NA,graduated_high_school,English,male,NA,birds,NA,2,1564589077461,1,NA,1,These are both,peacock,NA,warmup
140,swan,NA,NA,5,images/colibri.jpg,swan,This is a,Nope.,2,birds,jennifer,hummingbird,yes,Please label the pictures below.,NA,NA,25,NA,Good experiment.,images/swan.jpg,birds,NA,graduated_high_school,English,male,NA,birds,NA,2,1564589077461,2,NA,1,These are both,hummingbird,NA,warmup
140,sunflow,NA,NA,5,images/sunflower.png,daisy,This is a,Nope.,2,flowers,jennifer,sunflower,yes,Please label the pictures below.,NA,NA,25,NA,Good experiment.,images/daisy.png,fllowers,NA,graduated_high_school,English,male,NA,flowers,NA,3,1564589077461,1,NA,1,These are both,sunflower,NA,warmup
140,daisy,NA,NA,5,images/sunflower.png,daisy,This is a,Nope.,2,flowers,jennifer,sunflower,yes,Please label the pictures below.,NA,NA,25,NA,Good experiment.,images/daisy.png,flowers,NA,graduated_high_school,English,male,NA,flowers,NA,3,1564589077461,2,NA,1,These are both,sunflower,NA,warmup
140,NA,small,images/fish-parade.png,5,NA,NA,That's a small,Nope.,2,fish,jennifer,NA,yes,Another animal belongs to the group.,prenominal,You say to your friend:,25,fish,Good experiment.,NA,NA,small,graduated_high_school,English,male,NA,NA,You see a group of animals.,1,1564589077461,NA,images/goldfish.png,1,NA,NA,congruent,main
140,NA,small,images/flower-parade.png,5,NA,NA,That's a small,Nope.,2,flowers,jennifer,NA,yes,Another plant belongs to the group.,prenominal,You say to your friend:,25,flower,Good experiment.,NA,NA,big,graduated_high_school,English,male,NA,NA,You see a group of plants.,2,1564589077461,NA,images/sunflower-s.png,1,NA,NA,incongruent,main
140,NA,big,images/bird-parade.png,5,NA,NA,That's a big,Nope.,2,birds,jennifer,NA,yes,Another animal belongs to the group.,prenominal,You say to your friend:,25,bird,Good experiment.,NA,NA,big,graduated_high_school,English,male,NA,NA,You see a group of animals.,3,1564589077461,NA,images/swan.jpg,1,NA,NA,congruent,main
141,swan,NA,NA,5,images/colibri.jpg,swan,This is a,no problems at all,2,birds,jennifer,hummingbird,yes,Please label the pictures below.,NA,NA,46,NA,good luck in your research!,images/swan.jpg,birds,NA,graduated_college,english,male,NA,birds,NA,1,1564589208287,1,NA,1,These are both,hummingbird,NA,warmup
141,dandilion,NA,NA,5,images/sunflower.png,daisy,This is a,no problems at all,2,flowers,jennifer,sunflower,yes,Please label the pictures below.,NA,NA,46,NA,good luck in your research!,images/daisy.png,flowers,NA,graduated_college,english,male,NA,flowers,NA,2,1564589208287,1,NA,1,These are both,sunflower,NA,warmup
141,daisy,NA,NA,5,images/sunflower.png,daisy,This is a,no problems at all,2,flowers,jennifer,sunflower,yes,Please label the pictures below.,NA,NA,46,NA,good luck in your research!,images/daisy.png,flowers,NA,graduated_college,english,male,NA,flowers,NA,2,1564589208287,2,NA,1,These are both,sunflower,NA,warmup
141,marlin,NA,NA,5,images/goldfish.png,swordfish,This is a,no problems at all,2,fish,jennifer,goldfish,yes,Please label the pictures below.,NA,NA,46,NA,good luck in your research!,images/swordfish.jpg,fish,NA,graduated_college,english,male,NA,fish,NA,3,1564589208287,1,NA,1,These are both,goldfish,NA,warmup
141,swordfish,NA,NA,5,images/goldfish.png,swordfish,This is a,no problems at all,2,fish,jennifer,goldfish,yes,Please label the pictures below.,NA,NA,46,NA,good luck in your research!,images/swordfish.jpg,fish,NA,graduated_college,english,male,NA,fish,NA,3,1564589208287,2,NA,1,These are both,goldfish,NA,warmup
141,NA,big,images/fish-parade.png,5,NA,NA,That's a big,no problems at all,2,fish,jennifer,NA,yes,Another animal belongs to the group.,prenominal,You say to your friend:,46,fish,good luck in your research!,NA,NA,small,graduated_college,english,male,NA,NA,You see a group of animals.,1,1564589208287,NA,images/goldfish-b.png,1,NA,NA,incongruent,main
141,NA,big,images/bird-parade-small.png,5,NA,NA,That's a big,no problems at all,2,birds,jennifer,NA,yes,Another animal bleongs to the group.,prenominal,You say to your friend:,46,hummingbird,good luck in your research!,NA,NA,small,graduated_college,english,male,NA,NA,You see a group of animals.,2,1564589208287,NA,images/colibri-b.jpg,1,NA,NA,incongruent,main
141,NA,big,images/flower-parade.png,5,NA,NA,That's a big,no problems at all,2,flowers,jennifer,NA,yes,Another plant belongs to the group.,prenominal,You say to your friend:,46,sunflower,good luck in your research!,NA,NA,big,graduated_college,english,male,NA,NA,You see a group of plants.,3,1564589208287,NA,images/sunflower.png,1,NA,NA,congruent,main
141,pine tree,NA,NA,5,images/bonsai.jpg,redwood|sequoia,This is a,no problems at all,2,trees,jennifer,bonsai,yes,Please label the pictures below.,NA,NA,46,NA,good luck in your research!,images/sequoia.jpg,trees,NA,graduated_college,english,male,NA,trees,NA,1,1564589208287,1,NA,1,These are both,bansai tree,NA,warmup
141,redwood,NA,NA,5,images/bonsai.jpg,redwood|sequoia,This is a,no problems at all,2,trees,jennifer,bonsai,yes,Please label the pictures below.,NA,NA,46,NA,good luck in your research!,images/sequoia.jpg,trees,NA,graduated_college,english,male,NA,trees,NA,1,1564589208287,2,NA,1,These are both,bonsai,NA,warmup
141,chihuahua,NA,NA,5,images/great-dane.jpg,chihuahua,This is a,no problems at all,2,dogs,jennifer,great dane,yes,Please label the pictures below.,NA,NA,46,NA,good luck in your research!,images/chihuahua.jpg,dogs,NA,graduated_college,english,male,NA,dogs,NA,2,1564589208287,1,NA,1,These are both,great dane,NA,warmup
141,monkey,NA,NA,5,images/gorilla.jpg,spider monkey,This is a,no problems at all,2,primates,jennifer,gorilla,yes,Please label the pictures below.,NA,NA,46,NA,good luck in your research!,images/spidermonkey.jpg,primates,NA,graduated_college,english,male,NA,monkeys|apes|primates,NA,3,1564589208287,1,NA,1,These are both,gorilla,NA,warmup
141,spider monkey,NA,NA,5,images/gorilla.jpg,spider monkey,This is a,no problems at all,2,primates,jennifer,gorilla,yes,Please label the pictures below.,NA,NA,46,NA,good luck in your research!,images/spidermonkey.jpg,primates,NA,graduated_college,english,male,NA,monkeys|apes|primates,NA,3,1564589208287,2,NA,1,These are both,gorilla,NA,warmup
141,NA,big,images/dog_parade.png,5,NA,NA,That's a big,no problems at all,2,dogs,jennifer,NA,yes,Another animal belongs to the group.,prenominal,You say to your friend:,46,dog,good luck in your research!,NA,NA,big,graduated_college,english,male,NA,NA,You see a group of animals.,1,1564589208287,NA,images/great-dane.jpg,1,NA,NA,congruent,main
141,NA,small,images/monkey-parade.png,5,NA,NA,That's a small,no problems at all,2,primates,jennifer,NA,yes,Another animal belongs to the group.,prenominal,You say to your friend:,46,gorilla,good luck in your research!,NA,NA,big,graduated_college,english,male,NA,NA,You see a group of animals.,2,1564589208287,NA,images/gorilla_s.jpg,1,NA,NA,incongruent,main
141,NA,small,images/tree-parade.png,5,NA,NA,That's a small,no problems at all,2,trees,jennifer,NA,yes,Another plant belongs to the group.,prenominal,You say to your friend:,46,tree,good luck in your research!,NA,NA,small,graduated_college,english,male,NA,NA,You see a group of plants.,3,1564589208287,NA,images/bonsai.jpg,1,NA,NA,congruent,main
143,chihuahua,NA,NA,5,images/great-dane.jpg,chihuahua,This is a,no,2,dogs,mary,great dane,NA,Please label the pictures below.,NA,NA,NA,NA,minimum wage is fair,images/chihuahua.jpg,dogs,NA,higher_degree,english,NA,NA,dogs,NA,1,1564589086257,1,NA,2,These are both,hounddog,NA,warmup
143,chihuahua,NA,NA,5,images/great-dane.jpg,chihuahua,This is a,no,2,dogs,mary,great dane,NA,Please label the pictures below.,NA,NA,NA,NA,minimum wage is fair,images/chihuahua.jpg,dogs,NA,higher_degree,english,NA,NA,dogs,NA,1,1564589086257,2,NA,2,These are both,great dane,NA,warmup
143,swan,NA,NA,5,images/colibri.jpg,swan,This is a,no,2,birds,mary,hummingbird,NA,Please label the pictures below.,NA,NA,NA,NA,minimum wage is fair,images/swan.jpg,birds,NA,higher_degree,english,NA,NA,birds,NA,2,1564589086257,1,NA,2,These are both,robin,NA,warmup
143,swan,NA,NA,5,images/colibri.jpg,swan,This is a,no,2,birds,mary,hummingbird,NA,Please label the pictures below.,NA,NA,NA,NA,minimum wage is fair,images/swan.jpg,birds,NA,higher_degree,english,NA,NA,birds,NA,2,1564589086257,2,NA,2,These are both,hummingbird,NA,warmup
143,daisy,NA,NA,5,images/sunflower.png,daisy,This is a,no,2,flowers,mary,sunflower,NA,Please label the pictures below.,NA,NA,NA,NA,minimum wage is fair,images/daisy.png,flowers,NA,higher_degree,english,NA,NA,flowers,NA,3,1564589086257,1,NA,2,These are both,sunflower,NA,warmup
143,NA,small,images/bird-parade-small.png,5,NA,NA,That's a small,no,2,birds,mary,NA,NA,Another animal bleongs to the group.,prenominal,You say to your friend:,NA,bird,minimum wage is fair,NA,NA,small,higher_degree,english,NA,NA,NA,You see a group of animals.,1,1564589086257,NA,images/colibri.jpg,2,NA,NA,congruent,main
143,NA,big,images/dog_parade_small.png,5,NA,NA,That's a big,no,2,dogs,mary,NA,NA,Another animal belongs to the group.,prenominal,You say to your friend:,NA,chihuahua,minimum wage is fair,NA,NA,small,higher_degree,english,NA,NA,NA,You see a group of animals.,2,1564589086257,NA,images/chihuahua-b.jpg,2,NA,NA,incongruent,main
143,NA,big,images/flower-parade.png,5,NA,NA,That's a big,no,2,flowers,mary,NA,NA,Another plant belongs to the group.,prenominal,You say to your friend:,NA,sunflower,minimum wage is fair,NA,NA,big,higher_degree,english,NA,NA,NA,You see a group of plants.,3,1564589086257,NA,images/sunflower.png,2,NA,NA,congruent,main
143,swordfish,NA,NA,5,images/goldfish.png,swordfish,This is a,no,2,fish,mary,goldfish,NA,Please label the pictures below.,NA,NA,NA,NA,minimum wage is fair,images/swordfish.jpg,fish,NA,higher_degree,english,NA,NA,fish,NA,1,1564589086257,1,NA,2,These are both,goldfish,NA,warmup
143,dogwood,NA,NA,5,images/bonsai.jpg,redwood|sequoia,This is a,no,2,trees,mary,bonsai,NA,Please label the pictures below.,NA,NA,NA,NA,minimum wage is fair,images/sequoia.jpg,trees,NA,higher_degree,english,NA,NA,trees,NA,2,1564589086257,1,NA,2,These are both,shrub,NA,warmup
143,redwood,NA,NA,5,images/bonsai.jpg,redwood|sequoia,This is a,no,2,trees,mary,bonsai,NA,Please label the pictures below.,NA,NA,NA,NA,minimum wage is fair,images/sequoia.jpg,trees,NA,higher_degree,english,NA,NA,trees,NA,2,1564589086257,2,NA,2,These are both,bonsai,NA,warmup
143,monkey,NA,NA,5,images/gorilla.jpg,spider monkey,This is a,no,2,primates,mary,gorilla,NA,Please label the pictures below.,NA,NA,NA,NA,minimum wage is fair,images/spidermonkey.jpg,primates,NA,higher_degree,english,NA,NA,monkeys|apes|primates,NA,3,1564589086257,1,NA,2,These are both,ape,NA,warmup
143,spider monkey,NA,NA,5,images/gorilla.jpg,spider monkey,This is a,no,2,primates,mary,gorilla,NA,Please label the pictures below.,NA,NA,NA,NA,minimum wage is fair,images/spidermonkey.jpg,primates,NA,higher_degree,english,NA,NA,monkeys|apes|primates,NA,3,1564589086257,2,NA,2,These are both,gorilla,NA,warmup
143,NA,small,images/monkey-parade.png,5,NA,NA,That's a small,no,2,primates,mary,NA,NA,Another animal belongs to the group.,prenominal,You say to your friend:,NA,gorilla,minimum wage is fair,NA,NA,big,higher_degree,english,NA,NA,NA,You see a group of animals.,1,1564589086257,NA,images/gorilla_s.jpg,2,NA,NA,incongruent,main
143,NA,big,images/tree-parade.png,5,NA,NA,That's a big,no,2,trees,mary,NA,NA,Another plant belongs to the group.,prenominal,You say to your friend:,NA,redwood,minimum wage is fair,NA,NA,big,higher_degree,english,NA,NA,NA,You see a group of plants.,2,1564589086257,NA,images/sequoia.jpg,2,NA,NA,congruent,main
143,NA,big,images/fish-parade.png,5,NA,NA,That's a big,no,2,fish,mary,NA,NA,Another animal belongs to the group.,prenominal,You say to your friend:,NA,goldfish,minimum wage is fair,NA,NA,small,higher_degree,english,NA,NA,NA,You see a group of animals.,3,1564589086257,NA,images/goldfish-b.png,2,NA,NA,incongruent,main
145,monkey,NA,NA,5,images/gorilla.jpg,spider monkey,This is a,No errors.,1,primates,sarah,gorilla,yes,Please label the pictures below.,NA,NA,30,NA,NA,images/spidermonkey.jpg,monkeys,NA,graduated_college,English,male,NA,monkeys|apes|primates,NA,1,1564589389851,1,NA,1.1,These are both,gorilla,NA,warmup
145,spider monkey,NA,NA,5,images/gorilla.jpg,spider monkey,This is a,No errors.,1,primates,sarah,gorilla,yes,Please label the pictures below.,NA,NA,30,NA,NA,images/spidermonkey.jpg,monkeys,NA,graduated_college,English,male,NA,monkeys|apes|primates,NA,1,1564589389851,2,NA,1.1,These are both,gorilla,NA,warmup
145,swan,NA,NA,5,images/colibri.jpg,swan,This is a,No errors.,1,birds,sarah,hummingbird,yes,Please label the pictures below.,NA,NA,30,NA,NA,images/swan.jpg,birds,NA,graduated_college,English,male,NA,birds,NA,2,1564589389851,1,NA,1.1,These are both,humming bird,NA,warmup
145,swan,NA,NA,5,images/colibri.jpg,swan,This is a,No errors.,1,birds,sarah,hummingbird,yes,Please label the pictures below.,NA,NA,30,NA,NA,images/swan.jpg,birds,NA,graduated_college,English,male,NA,birds,NA,2,1564589389851,2,NA,1.1,These are both,hummingbird,NA,warmup
145,tree,NA,NA,5,images/bonsai.jpg,redwood|sequoia,This is a,No errors.,1,trees,sarah,bonsai,yes,Please label the pictures below.,NA,NA,30,NA,NA,images/sequoia.jpg,tree,NA,graduated_college,English,male,NA,trees,NA,3,1564589389851,1,NA,1.1,These are both,tree,NA,warmup
145,redwood,NA,NA,5,images/bonsai.jpg,redwood|sequoia,This is a,No errors.,1,trees,sarah,bonsai,yes,Please label the pictures below.,NA,NA,30,NA,NA,images/sequoia.jpg,trees,NA,graduated_college,English,male,NA,trees,NA,3,1564589389851,2,NA,1.1,These are both,bonsai,NA,warmup
145,NA,big,images/monkey-parade-small.png,5,NA,NA,That,No errors.,1,primates,sarah,NA,yes,Another animal belongs to the group.,predicative,You say to your friend:,30,gorilla,NA,NA,NA,small,graduated_college,English,male,NA,NA,You see a group of animals.,1,1564589389851,NA,images/spidermonkey-b.jpg,1.1,is big.,NA,incongruent,main
145,NA,big,images/tree-parade.png,5,NA,NA,That,No errors.,1,trees,sarah,NA,yes,Another plant belongs to the group.,predicative,You say to your friend:,30,sequoia,NA,NA,NA,big,graduated_college,English,male,NA,NA,You see a group of plants.,2,1564589389851,NA,images/sequoia.jpg,1.1,is big.,NA,congruent,main
145,NA,big,images/bird-parade-small.png,5,NA,NA,That,No errors.,1,birds,sarah,NA,yes,Another animal bleongs to the group.,predicative,You say to your friend:,30,bird,NA,NA,NA,small,graduated_college,English,male,NA,NA,You see a group of animals.,3,1564589389851,NA,images/colibri-b.jpg,1.1,is big.,NA,incongruent,main
145,terrier,NA,NA,5,images/great-dane.jpg,chihuahua,This is a,No errors.,1,dogs,sarah,great dane,yes,Please label the pictures below.,NA,NA,30,NA,NA,images/chihuahua.jpg,dogs,NA,graduated_college,English,male,NA,dogs,NA,1,1564589389851,1,NA,1.1,These are both,doberman,NA,warmup
145,chihuahua,NA,NA,5,images/great-dane.jpg,chihuahua,This is a,No errors.,1,dogs,sarah,great dane,yes,Please label the pictures below.,NA,NA,30,NA,NA,images/chihuahua.jpg,dogs,NA,graduated_college,English,male,NA,dogs,NA,1,1564589389851,2,NA,1.1,These are both,great dane,NA,warmup
145,daisy,NA,NA,5,images/sunflower.png,daisy,This is a,No errors.,1,flowers,sarah,sunflower,yes,Please label the pictures below.,NA,NA,30,NA,NA,images/daisy.png,flowers,NA,graduated_college,English,male,NA,flowers,NA,2,1564589389851,1,NA,1.1,These are both,sunflower,NA,warmup
145,sword fish,NA,NA,5,images/goldfish.png,swordfish,This is a,No errors.,1,fish,sarah,goldfish,yes,Please label the pictures below.,NA,NA,30,NA,NA,images/swordfish.jpg,fishes,NA,graduated_college,English,male,NA,fish,NA,3,1564589389851,1,NA,1.1,These are both,gold fish,NA,warmup
145,swordfish,NA,NA,5,images/goldfish.png,swordfish,This is a,No errors.,1,fish,sarah,goldfish,yes,Please label the pictures below.,NA,NA,30,NA,NA,images/swordfish.jpg,fishes,NA,graduated_college,English,male,NA,fish,NA,3,1564589389851,2,NA,1.1,These are both,goldfish,NA,warmup
145,swordfish,NA,NA,5,images/goldfish.png,swordfish,This is a,No errors.,1,fish,sarah,goldfish,yes,Please label the pictures below.,NA,NA,30,NA,NA,images/swordfish.jpg,fish,NA,graduated_college,English,male,NA,fish,NA,3,1564589389851,3,NA,1.1,These are both,goldfish,NA,warmup
145,NA,big,images/fish-parade.png,5,NA,NA,That,No errors.,1,fish,sarah,NA,yes,Another animal belongs to the group.,predicative,You say to your friend:,30,fish,NA,NA,NA,small,graduated_college,English,male,NA,NA,You see a group of animals.,1,1564589389851,NA,images/goldfish-b.png,1.1,is big.,NA,incongruent,main
145,NA,big,images/dog_parade.png,5,NA,NA,That,No errors.,1,dogs,sarah,NA,yes,Another animal belongs to the group.,predicative,You say to your friend:,30,great dane,NA,NA,NA,big,graduated_college,English,male,NA,NA,You see a group of animals.,2,1564589389851,NA,images/great-dane.jpg,1.1,is big.,NA,congruent,main
145,NA,big,images/flower-parade.png,5,NA,NA,That,No errors.,1,flowers,sarah,NA,yes,Another plant belongs to the group.,predicative,You say to your friend:,30,sunflower,NA,NA,NA,big,graduated_college,English,male,NA,NA,You see a group of plants.,3,1564589389851,NA,images/sunflower.png,1.1,is big.,NA,congruent,main
147,monkey,NA,NA,5,images/gorilla.jpg,spider monkey,This is a,no,1,primates,Jennifer,gorilla,yes,Please label the pictures below.,NA,NA,25,NA,NA,images/spidermonkey.jpg,animals,NA,graduated_college,Cantonese,male,NA,monkeys|apes|primates,NA,1,1564589339822,1,NA,1,These are both,gorilla,NA,warmup
147,spider monkey,NA,NA,5,images/gorilla.jpg,spider monkey,This is a,no,1,primates,Jennifer,gorilla,yes,Please label the pictures below.,NA,NA,25,NA,NA,images/spidermonkey.jpg,"monkeys, apes, primates",NA,graduated_college,Cantonese,male,NA,monkeys|apes|primates,NA,1,1564589339822,2,NA,1,These are both,gorilla,NA,warmup
147,spider monkey,NA,NA,5,images/gorilla.jpg,spider monkey,This is a,no,1,primates,Jennifer,gorilla,yes,Please label the pictures below.,NA,NA,25,NA,NA,images/spidermonkey.jpg,"monkeys, apes, primates",NA,graduated_college,Cantonese,male,NA,monkeys|apes|primates,NA,1,1564589339822,3,NA,1,These are both,gorilla,NA,warmup
