submission_id,response1,startDate,context_picture,experiment_id,picture2,correct1,question1,problems,enjoyment,hit_id,item,botresponse,assignment_id,correct2,understand,text,condition,sentence,age,response,comments,picture1,response3,education,worker_id,languages,sex,RT,correct3,context,trial_number,startTime,attempts,picture,question3,fairprice,question2,size,response2,trial_name
438,dandelion,Mon Aug 26 2019 11:50:51 GMT-0400 (Eastern Daylight Time),NA,8,warmup/peony.png,daisy,This is a ,No,2,36GJS3V78VE1Z44RNQ7GLEXHC8GJGC,flowers,mary,3Q8GYXHFEQQJYD7UM4C5IXPLLIEC57,peony,yes,Please label the pictures below.,NA,NA,35,NA,,warmup/daisy.png,plants,graduated_high_school,A2YHOJLEZR8663,English,male,NA,flowers,NA,1,1566834651968,1,NA,This is a ,1.00,These are both,NA,flower,warmup1
438,daisy,Mon Aug 26 2019 11:50:51 GMT-0400 (Eastern Daylight Time),NA,8,warmup/peony.png,daisy,This is a ,No,2,36GJS3V78VE1Z44RNQ7GLEXHC8GJGC,flowers,mary,3Q8GYXHFEQQJYD7UM4C5IXPLLIEC57,peony,yes,Please label the pictures below.,NA,NA,35,NA,,warmup/daisy.png,flowers,graduated_high_school,A2YHOJLEZR8663,English,male,NA,flowers,NA,1,1566834651968,2,NA,This is a ,1.00,These are both,NA,peony,warmup1
438,pug,Mon Aug 26 2019 11:50:51 GMT-0400 (Eastern Daylight Time),NA,8,warmup/great-dane.jpg,pug,This is a ,No,2,36GJS3V78VE1Z44RNQ7GLEXHC8GJGC,dogs,mary,3Q8GYXHFEQQJYD7UM4C5IXPLLIEC57,great dane,yes,Please label the pictures below.,NA,NA,35,NA,,warmup/pug.jpg,dogs,graduated_high_school,A2YHOJLEZR8663,English,male,NA,dogs,NA,2,1566834651968,1,NA,This is a ,1.00,These are both,NA,great dane,warmup1
438,goose,Mon Aug 26 2019 11:50:51 GMT-0400 (Eastern Daylight Time),NA,8,warmup/sparrow.jpg,goose,This is a ,No,2,36GJS3V78VE1Z44RNQ7GLEXHC8GJGC,birds,mary,3Q8GYXHFEQQJYD7UM4C5IXPLLIEC57,sparrow,yes,Please label the pictures below.,NA,NA,35,NA,,warmup/goose.png,birds,graduated_high_school,A2YHOJLEZR8663,English,male,NA,birds,NA,3,1566834651968,1,NA,This is a ,1.00,These are both,NA,chickadee,warmup1
438,goose,Mon Aug 26 2019 11:50:51 GMT-0400 (Eastern Daylight Time),NA,8,warmup/sparrow.jpg,goose,This is a ,No,2,36GJS3V78VE1Z44RNQ7GLEXHC8GJGC,birds,mary,3Q8GYXHFEQQJYD7UM4C5IXPLLIEC57,sparrow,yes,Please label the pictures below.,NA,NA,35,NA,,warmup/goose.png,birds,graduated_high_school,A2YHOJLEZR8663,English,male,NA,birds,NA,3,1566834651968,2,NA,This is a ,1.00,These are both,NA,sparrow,warmup1
438,NA,Mon Aug 26 2019 11:50:51 GMT-0400 (Eastern Daylight Time),images/dog-parade2.png,8,NA,NA,That ,No,2,36GJS3V78VE1Z44RNQ7GLEXHC8GJGC,dogs,mary,3Q8GYXHFEQQJYD7UM4C5IXPLLIEC57,NA,yes,This one is also in the parade.,predicative,You say to your friend:,35,dog,,NA,NA,graduated_high_school,A2YHOJLEZR8663,English,male,,NA,You see a parade of animals.,1,1566834651968,NA,images/pug.png,NA,1.00, is small.,small,NA,main1
438,NA,Mon Aug 26 2019 11:50:51 GMT-0400 (Eastern Daylight Time),images/bird-parade.png,8,NA,NA,That ,No,2,36GJS3V78VE1Z44RNQ7GLEXHC8GJGC,birds,mary,3Q8GYXHFEQQJYD7UM4C5IXPLLIEC57,NA,yes,This one is also in the parade.,predicative,You say to your friend:,35,sparrow,,NA,NA,graduated_high_school,A2YHOJLEZR8663,English,male,,NA,You see a parade of animals.,2,1566834651968,NA,images/sparrow.png,NA,1.00, is small.,small,NA,main1
438,NA,Mon Aug 26 2019 11:50:51 GMT-0400 (Eastern Daylight Time),images/flower-parade.png,8,NA,NA,That ,No,2,36GJS3V78VE1Z44RNQ7GLEXHC8GJGC,flowers,mary,3Q8GYXHFEQQJYD7UM4C5IXPLLIEC57,NA,yes,This one is also in the collection.,predicative,You say to your friend:,35,daisy,,NA,NA,graduated_high_school,A2YHOJLEZR8663,English,male,,NA,You see a collection of plants.,3,1566834651968,NA,images/daisy.png,NA,1.00, is small.,small,NA,main1
438,dandelion,Mon Aug 26 2019 11:50:51 GMT-0400 (Eastern Daylight Time),NA,8,warmup/sunflower.png,dandelion,This is a ,No,2,36GJS3V78VE1Z44RNQ7GLEXHC8GJGC,flowers,mary,3Q8GYXHFEQQJYD7UM4C5IXPLLIEC57,sunflower,yes,Please label the pictures below.,NA,NA,35,NA,,warmup/dandelion.jpg,flowers,graduated_high_school,A2YHOJLEZR8663,English,male,NA,flowers,NA,1,1566834651968,1,NA,This is a ,1.00,These are both,NA,sunflower,warmup2
438,redwood,Mon Aug 26 2019 11:50:51 GMT-0400 (Eastern Daylight Time),NA,8,warmup/bonsai.jpg,redwood|sequoia,This is a ,No,2,36GJS3V78VE1Z44RNQ7GLEXHC8GJGC,trees,mary,3Q8GYXHFEQQJYD7UM4C5IXPLLIEC57,bonsai,yes,Please label the pictures below.,NA,NA,35,NA,,warmup/sequoia.jpg,trees,graduated_high_school,A2YHOJLEZR8663,English,male,NA,trees,NA,2,1566834651968,1,NA,This is a ,1.00,These are both,NA,bonsai,warmup2
438,chihuahua,Mon Aug 26 2019 11:50:51 GMT-0400 (Eastern Daylight Time),NA,8,warmup/doberman.png,chihuahua,This is a ,No,2,36GJS3V78VE1Z44RNQ7GLEXHC8GJGC,dogs,mary,3Q8GYXHFEQQJYD7UM4C5IXPLLIEC57,doberman,yes,Please label the pictures below.,NA,NA,35,NA,,warmup/chihuahua.jpg,dogs,graduated_high_school,A2YHOJLEZR8663,English,male,NA,dogs,NA,3,1566834651968,1,NA,This is a ,1.00,These are both,NA,doberman,warmup2
438,NA,Mon Aug 26 2019 11:50:51 GMT-0400 (Eastern Daylight Time),images/tree-parade.png,8,NA,NA,That ,No,2,36GJS3V78VE1Z44RNQ7GLEXHC8GJGC,trees,mary,3Q8GYXHFEQQJYD7UM4C5IXPLLIEC57,NA,yes,This one is also in the landscape.,predicative,You say to your friend:,35,redwood,,NA,NA,graduated_high_school,A2YHOJLEZR8663,English,male,,NA,You see the following items in a landscape.,1,1566834651968,NA,images/sequoia.png,NA,1.00, is big.,big,NA,main2
438,NA,Mon Aug 26 2019 11:50:51 GMT-0400 (Eastern Daylight Time),images/flower-parade2.png,8,NA,NA,That ,No,2,36GJS3V78VE1Z44RNQ7GLEXHC8GJGC,flowers,mary,3Q8GYXHFEQQJYD7UM4C5IXPLLIEC57,NA,yes,This one is also in the collection.,predicative,You say to your friend:,35,flower,,NA,NA,graduated_high_school,A2YHOJLEZR8663,English,male,,NA,You see a collection of plants.,2,1566834651968,NA,images/sunflower.png,NA,1.00, is big.,big,NA,main2
438,NA,Mon Aug 26 2019 11:50:51 GMT-0400 (Eastern Daylight Time),images/dog-parade.png,8,NA,NA,That ,No,2,36GJS3V78VE1Z44RNQ7GLEXHC8GJGC,dogs,mary,3Q8GYXHFEQQJYD7UM4C5IXPLLIEC57,NA,yes,This one is also in the parade.,predicative,You say to your friend:,35,dog,,NA,NA,graduated_high_school,A2YHOJLEZR8663,English,male,,NA,You see a parade of animals.,3,1566834651968,NA,images/doberman.png,NA,1.00, is big.,big,NA,main2
437,tree,Mon Aug 26 2019 10:49:44 GMT-0500 (Central Daylight Time),NA,8,warmup/bonsai.jpg,redwood|sequoia,This is a ,no,2,3MDKGGG61QBTGEBQN7CYBT71GW4T6P,trees,Patricia,3WRFBPLXRBCZB2HHXBXQJBLD6PON3V,bonsai,yes,Please label the pictures below.,NA,NA,30,NA,none,warmup/sequoia.jpg,trees,graduated_college,AFCMHQWCV6N02,english,male,NA,trees,NA,1,1566834584094,1,NA,This is a ,1,These are both,NA,tree,warmup1
437,tree,Mon Aug 26 2019 10:49:44 GMT-0500 (Central Daylight Time),NA,8,warmup/bonsai.jpg,redwood|sequoia,This is a ,no,2,3MDKGGG61QBTGEBQN7CYBT71GW4T6P,trees,Patricia,3WRFBPLXRBCZB2HHXBXQJBLD6PON3V,bonsai,yes,Please label the pictures below.,NA,NA,30,NA,none,warmup/sequoia.jpg,trees,graduated_college,AFCMHQWCV6N02,english,male,NA,trees,NA,1,1566834584094,2,NA,This is a ,1,These are both,NA,plant,warmup1
437,tree,Mon Aug 26 2019 10:49:44 GMT-0500 (Central Daylight Time),NA,8,warmup/bonsai.jpg,redwood|sequoia,This is a ,no,2,3MDKGGG61QBTGEBQN7CYBT71GW4T6P,trees,Patricia,3WRFBPLXRBCZB2HHXBXQJBLD6PON3V,bonsai,yes,Please label the pictures below.,NA,NA,30,NA,none,warmup/sequoia.jpg,trees,graduated_college,AFCMHQWCV6N02,english,male,NA,trees,NA,1,1566834584094,3,NA,This is a ,1,These are both,NA,plant,warmup1
437,tree,Mon Aug 26 2019 10:49:44 GMT-0500 (Central Daylight Time),NA,8,warmup/bonsai.jpg,redwood|sequoia,This is a ,no,2,3MDKGGG61QBTGEBQN7CYBT71GW4T6P,trees,Patricia,3WRFBPLXRBCZB2HHXBXQJBLD6PON3V,bonsai,yes,Please label the pictures below.,NA,NA,30,NA,none,warmup/sequoia.jpg,,graduated_college,AFCMHQWCV6N02,english,male,NA,trees,NA,1,1566834584094,4,NA,This is a ,1,These are both,NA,plant,warmup1
437,,Mon Aug 26 2019 10:49:44 GMT-0500 (Central Daylight Time),NA,8,warmup/bonsai.jpg,redwood|sequoia,This is a ,no,2,3MDKGGG61QBTGEBQN7CYBT71GW4T6P,trees,Patricia,3WRFBPLXRBCZB2HHXBXQJBLD6PON3V,bonsai,yes,Please label the pictures below.,NA,NA,30,NA,none,warmup/sequoia.jpg,trees,graduated_college,AFCMHQWCV6N02,english,male,NA,trees,NA,1,1566834584094,5,NA,This is a ,1,These are both,NA,,warmup1
437,,Mon Aug 26 2019 10:49:44 GMT-0500 (Central Daylight Time),NA,8,warmup/bonsai.jpg,redwood|sequoia,This is a ,no,2,3MDKGGG61QBTGEBQN7CYBT71GW4T6P,trees,Patricia,3WRFBPLXRBCZB2HHXBXQJBLD6PON3V,bonsai,yes,Please label the pictures below.,NA,NA,30,NA,none,warmup/sequoia.jpg,trees,graduated_college,AFCMHQWCV6N02,english,male,NA,trees,NA,1,1566834584094,6,NA,This is a ,1,These are both,NA,,warmup1
437,redwood,Mon Aug 26 2019 10:49:44 GMT-0500 (Central Daylight Time),NA,8,warmup/bonsai.jpg,redwood|sequoia,This is a ,no,2,3MDKGGG61QBTGEBQN7CYBT71GW4T6P,trees,Patricia,3WRFBPLXRBCZB2HHXBXQJBLD6PON3V,bonsai,yes,Please label the pictures below.,NA,NA,30,NA,none,warmup/sequoia.jpg,trees,graduated_college,AFCMHQWCV6N02,english,male,NA,trees,NA,1,1566834584094,7,NA,This is a ,1,These are both,NA,bonsai,warmup1
437,hummingbird,Mon Aug 26 2019 10:49:44 GMT-0500 (Central Daylight Time),NA,8,warmup/eagle.jpg,hummingbird,This is a ,no,2,3MDKGGG61QBTGEBQN7CYBT71GW4T6P,birds,Patricia,3WRFBPLXRBCZB2HHXBXQJBLD6PON3V,eagle,yes,Please label the pictures below.,NA,NA,30,NA,none,warmup/colibri.jpg,birds,graduated_college,AFCMHQWCV6N02,english,male,NA,birds,NA,2,1566834584094,1,NA,This is an ,1,These are both,NA,eagle,warmup1
437,lilly,Mon Aug 26 2019 10:49:44 GMT-0500 (Central Daylight Time),NA,8,warmup/peony.png,daisy,This is a ,no,2,3MDKGGG61QBTGEBQN7CYBT71GW4T6P,flowers,Patricia,3WRFBPLXRBCZB2HHXBXQJBLD6PON3V,peony,yes,Please label the pictures below.,NA,NA,30,NA,none,warmup/daisy.png,flowers,graduated_college,AFCMHQWCV6N02,english,male,NA,flowers,NA,3,1566834584094,1,NA,This is a ,1,These are both,NA,rose,warmup1
437,daisy,Mon Aug 26 2019 10:49:44 GMT-0500 (Central Daylight Time),NA,8,warmup/peony.png,daisy,This is a ,no,2,3MDKGGG61QBTGEBQN7CYBT71GW4T6P,flowers,Patricia,3WRFBPLXRBCZB2HHXBXQJBLD6PON3V,peony,yes,Please label the pictures below.,NA,NA,30,NA,none,warmup/daisy.png,flowers,graduated_college,AFCMHQWCV6N02,english,male,NA,flowers,NA,3,1566834584094,2,NA,This is a ,1,These are both,NA,rose,warmup1
437,daisy,Mon Aug 26 2019 10:49:44 GMT-0500 (Central Daylight Time),NA,8,warmup/peony.png,daisy,This is a ,no,2,3MDKGGG61QBTGEBQN7CYBT71GW4T6P,flowers,Patricia,3WRFBPLXRBCZB2HHXBXQJBLD6PON3V,peony,yes,Please label the pictures below.,NA,NA,30,NA,none,warmup/daisy.png,flowers,graduated_college,AFCMHQWCV6N02,english,male,NA,flowers,NA,3,1566834584094,3,NA,This is a ,1,These are both,NA,peony,warmup1
437,NA,Mon Aug 26 2019 10:49:44 GMT-0500 (Central Daylight Time),images/bird-parade2.png,8,NA,NA,That ,no,2,3MDKGGG61QBTGEBQN7CYBT71GW4T6P,birds,Patricia,3WRFBPLXRBCZB2HHXBXQJBLD6PON3V,NA,yes,This one is also in the parade.,predicative,You say to your friend:,30,eagle,none,NA,NA,graduated_college,AFCMHQWCV6N02,english,male,,NA,You see a parade of animals.,1,1566834584094,NA,images/eagle.png,NA,1, is big.,big,NA,main1
437,NA,Mon Aug 26 2019 10:49:44 GMT-0500 (Central Daylight Time),images/flower-parade.png,8,NA,NA,That ,no,2,3MDKGGG61QBTGEBQN7CYBT71GW4T6P,flowers,Patricia,3WRFBPLXRBCZB2HHXBXQJBLD6PON3V,NA,yes,This one is also in the collection.,predicative,You say to your friend:,30,daisy,none,NA,NA,graduated_college,AFCMHQWCV6N02,english,male,,NA,You see a collection of plants.,2,1566834584094,NA,images/daisy.png,NA,1, is small.,small,NA,main1
437,NA,Mon Aug 26 2019 10:49:44 GMT-0500 (Central Daylight Time),images/tree-parade.png,8,NA,NA,That ,no,2,3MDKGGG61QBTGEBQN7CYBT71GW4T6P,trees,Patricia,3WRFBPLXRBCZB2HHXBXQJBLD6PON3V,NA,yes,This one is also in the landscape.,predicative,You say to your friend:,30,bonsai,none,NA,NA,graduated_college,AFCMHQWCV6N02,english,male,,NA,You see the following items in a landscape.,3,1566834584094,NA,images/bonsai.png,NA,1, is small.,small,NA,main1
437,pug,Mon Aug 26 2019 10:49:44 GMT-0500 (Central Daylight Time),NA,8,warmup/great-dane.jpg,pug,This is a ,no,2,3MDKGGG61QBTGEBQN7CYBT71GW4T6P,dogs,Patricia,3WRFBPLXRBCZB2HHXBXQJBLD6PON3V,great dane,yes,Please label the pictures below.,NA,NA,30,NA,none,warmup/pug.jpg,dogs,graduated_college,AFCMHQWCV6N02,english,male,NA,dogs,NA,1,1566834584094,1,NA,This is a ,1,These are both,NA,greyhound,warmup2
437,pug,Mon Aug 26 2019 10:49:44 GMT-0500 (Central Daylight Time),NA,8,warmup/great-dane.jpg,pug,This is a ,no,2,3MDKGGG61QBTGEBQN7CYBT71GW4T6P,dogs,Patricia,3WRFBPLXRBCZB2HHXBXQJBLD6PON3V,great dane,yes,Please label the pictures below.,NA,NA,30,NA,none,warmup/pug.jpg,dogs,graduated_college,AFCMHQWCV6N02,english,male,NA,dogs,NA,1,1566834584094,2,NA,This is a ,1,These are both,NA,great dane,warmup2
437,swan,Mon Aug 26 2019 10:49:44 GMT-0500 (Central Daylight Time),NA,8,warmup/canary.jpg,swan,This is a ,no,2,3MDKGGG61QBTGEBQN7CYBT71GW4T6P,birds,Patricia,3WRFBPLXRBCZB2HHXBXQJBLD6PON3V,canary,yes,Please label the pictures below.,NA,NA,30,NA,none,warmup/swan.jpg,birds,graduated_college,AFCMHQWCV6N02,english,male,NA,birds,NA,2,1566834584094,1,NA,This is a ,1,These are both,NA,parrot,warmup2
437,swan,Mon Aug 26 2019 10:49:44 GMT-0500 (Central Daylight Time),NA,8,warmup/canary.jpg,swan,This is a ,no,2,3MDKGGG61QBTGEBQN7CYBT71GW4T6P,birds,Patricia,3WRFBPLXRBCZB2HHXBXQJBLD6PON3V,canary,yes,Please label the pictures below.,NA,NA,30,NA,none,warmup/swan.jpg,birds,graduated_college,AFCMHQWCV6N02,english,male,NA,birds,NA,2,1566834584094,2,NA,This is a ,1,These are both,NA,canary,warmup2
437,yorkie,Mon Aug 26 2019 10:49:44 GMT-0500 (Central Daylight Time),NA,8,warmup/doberman.png,chihuahua,This is a ,no,2,3MDKGGG61QBTGEBQN7CYBT71GW4T6P,dogs,Patricia,3WRFBPLXRBCZB2HHXBXQJBLD6PON3V,doberman,yes,Please label the pictures below.,NA,NA,30,NA,none,warmup/chihuahua.jpg,dogs,graduated_college,AFCMHQWCV6N02,english,male,NA,dogs,NA,3,1566834584094,1,NA,This is a ,1,These are both,NA,dobermin,warmup2
437,chihuahua,Mon Aug 26 2019 10:49:44 GMT-0500 (Central Daylight Time),NA,8,warmup/doberman.png,chihuahua,This is a ,no,2,3MDKGGG61QBTGEBQN7CYBT71GW4T6P,dogs,Patricia,3WRFBPLXRBCZB2HHXBXQJBLD6PON3V,doberman,yes,Please label the pictures below.,NA,NA,30,NA,none,warmup/chihuahua.jpg,dogs,graduated_college,AFCMHQWCV6N02,english,male,NA,dogs,NA,3,1566834584094,2,NA,This is a ,1,These are both,NA,doberman,warmup2
437,NA,Mon Aug 26 2019 10:49:44 GMT-0500 (Central Daylight Time),images/dog-parade2.png,8,NA,NA,That ,no,2,3MDKGGG61QBTGEBQN7CYBT71GW4T6P,dogs,Patricia,3WRFBPLXRBCZB2HHXBXQJBLD6PON3V,NA,yes,This one is also in the parade.,predicative,You say to your friend:,30,great dane,none,NA,NA,graduated_college,AFCMHQWCV6N02,english,male,,NA,You see a parade of animals.,1,1566834584094,NA,images/great-dane.png,NA,1, is big.,big,NA,main2
437,NA,Mon Aug 26 2019 10:49:44 GMT-0500 (Central Daylight Time),images/dog-parade.png,8,NA,NA,That ,no,2,3MDKGGG61QBTGEBQN7CYBT71GW4T6P,dogs,Patricia,3WRFBPLXRBCZB2HHXBXQJBLD6PON3V,NA,yes,This one is also in the parade.,predicative,You say to your friend:,30,doberman,none,NA,NA,graduated_college,AFCMHQWCV6N02,english,male,,NA,You see a parade of animals.,2,1566834584094,NA,images/doberman.png,NA,1, is big.,big,NA,main2
437,NA,Mon Aug 26 2019 10:49:44 GMT-0500 (Central Daylight Time),images/bird-parade3.png,8,NA,NA,That ,no,2,3MDKGGG61QBTGEBQN7CYBT71GW4T6P,birds,Patricia,3WRFBPLXRBCZB2HHXBXQJBLD6PON3V,NA,yes,This one is also in the parade.,predicative,You say to your friend:,30,canary,none,NA,NA,graduated_college,AFCMHQWCV6N02,english,male,,NA,You see a parade of animals.,3,1566834584094,NA,images/canary.png,NA,1, is small.,small,NA,main2
436,swordfish,Mon Aug 26 2019 11:39:57 GMT-0400 (Eastern Daylight Time),NA,8,warmup/goldfish.png,swordfish,This is a ,No issues that I saw.,1,32CXT5U14GRVK593GRZ603PU5518UH,fish,elizabeth,3QY7M81QH8AG4FX12A8040GPHW57KF,goldfish,yes,Please label the pictures below.,NA,NA,48,NA,"May want to use simpler objects or more easy to recognize ones. Not everyone will immediately be familiar with a Great Dane, especially a cartoon of one.",warmup/swordfish.jpg,fish,graduated_college,AP9WIQ4P78XLH,English,male,NA,fish,NA,1,1566833997757,1,NA,This is a ,1.00,These are both,NA,goldfish,warmup1
436,puppy,Mon Aug 26 2019 11:39:57 GMT-0400 (Eastern Daylight Time),NA,8,warmup/doberman.png,chihuahua,This is a ,No issues that I saw.,1,32CXT5U14GRVK593GRZ603PU5518UH,dogs,elizabeth,3QY7M81QH8AG4FX12A8040GPHW57KF,doberman,yes,Please label the pictures below.,NA,NA,48,NA,"May want to use simpler objects or more easy to recognize ones. Not everyone will immediately be familiar with a Great Dane, especially a cartoon of one.",warmup/chihuahua.jpg,animals,graduated_college,AP9WIQ4P78XLH,English,male,NA,dogs,NA,2,1566833997757,1,NA,This is a ,1.00,These are both,NA,dog,warmup1
436,chihuahua,Mon Aug 26 2019 11:39:57 GMT-0400 (Eastern Daylight Time),NA,8,warmup/doberman.png,chihuahua,This is a ,No issues that I saw.,1,32CXT5U14GRVK593GRZ603PU5518UH,dogs,elizabeth,3QY7M81QH8AG4FX12A8040GPHW57KF,doberman,yes,Please label the pictures below.,NA,NA,48,NA,"May want to use simpler objects or more easy to recognize ones. Not everyone will immediately be familiar with a Great Dane, especially a cartoon of one.",warmup/chihuahua.jpg,dogs,graduated_college,AP9WIQ4P78XLH,English,male,NA,dogs,NA,2,1566833997757,2,NA,This is a ,1.00,These are both,NA,doberman,warmup1
436,daisy,Mon Aug 26 2019 11:39:57 GMT-0400 (Eastern Daylight Time),NA,8,warmup/peony.png,daisy,This is a ,No issues that I saw.,1,32CXT5U14GRVK593GRZ603PU5518UH,flowers,elizabeth,3QY7M81QH8AG4FX12A8040GPHW57KF,peony,yes,Please label the pictures below.,NA,NA,48,NA,"May want to use simpler objects or more easy to recognize ones. Not everyone will immediately be familiar with a Great Dane, especially a cartoon of one.",warmup/daisy.png,flowers,graduated_college,AP9WIQ4P78XLH,English,male,NA,flowers,NA,3,1566833997757,1,NA,This is a ,1.00,These are both,NA,rose,warmup1
436,daisy,Mon Aug 26 2019 11:39:57 GMT-0400 (Eastern Daylight Time),NA,8,warmup/peony.png,daisy,This is a ,No issues that I saw.,1,32CXT5U14GRVK593GRZ603PU5518UH,flowers,elizabeth,3QY7M81QH8AG4FX12A8040GPHW57KF,peony,yes,Please label the pictures below.,NA,NA,48,NA,"May want to use simpler objects or more easy to recognize ones. Not everyone will immediately be familiar with a Great Dane, especially a cartoon of one.",warmup/daisy.png,flowers,graduated_college,AP9WIQ4P78XLH,English,male,NA,flowers,NA,3,1566833997757,2,NA,This is a ,1.00,These are both,NA,peony,warmup1
436,NA,Mon Aug 26 2019 11:39:57 GMT-0400 (Eastern Daylight Time),images/fish-parade.png,8,NA,NA,That ,No issues that I saw.,1,32CXT5U14GRVK593GRZ603PU5518UH,fish,elizabeth,3QY7M81QH8AG4FX12A8040GPHW57KF,NA,yes,This one is also in the parade.,predicative,You say to your friend:,48,swordfish,"May want to use simpler objects or more easy to recognize ones. Not everyone will immediately be familiar with a Great Dane, especially a cartoon of one.",NA,NA,graduated_college,AP9WIQ4P78XLH,English,male,,NA,You see a parade of animals.,1,1566833997757,NA,images/swordfish.png,NA,1.00, is big.,big,NA,main1
436,NA,Mon Aug 26 2019 11:39:57 GMT-0400 (Eastern Daylight Time),images/dog-parade.png,8,NA,NA,That ,No issues that I saw.,1,32CXT5U14GRVK593GRZ603PU5518UH,dogs,elizabeth,3QY7M81QH8AG4FX12A8040GPHW57KF,NA,yes,This one is also in the parade.,predicative,You say to your friend:,48,chihuahua,"May want to use simpler objects or more easy to recognize ones. Not everyone will immediately be familiar with a Great Dane, especially a cartoon of one.",NA,NA,graduated_college,AP9WIQ4P78XLH,English,male,,NA,You see a parade of animals.,2,1566833997757,NA,images/chihuahua.png,NA,1.00, is small.,small,NA,main1
436,NA,Mon Aug 26 2019 11:39:57 GMT-0400 (Eastern Daylight Time),images/flower-parade.png,8,NA,NA,That ,No issues that I saw.,1,32CXT5U14GRVK593GRZ603PU5518UH,flowers,elizabeth,3QY7M81QH8AG4FX12A8040GPHW57KF,NA,yes,This one is also in the collection.,predicative,You say to your friend:,48,daisy,"May want to use simpler objects or more easy to recognize ones. Not everyone will immediately be familiar with a Great Dane, especially a cartoon of one.",NA,NA,graduated_college,AP9WIQ4P78XLH,English,male,,NA,You see a collection of plants.,3,1566833997757,NA,images/daisy.png,NA,1.00, is small.,small,NA,main1
436,hummingbird,Mon Aug 26 2019 11:39:57 GMT-0400 (Eastern Daylight Time),NA,8,warmup/eagle.jpg,hummingbird,This is a ,No issues that I saw.,1,32CXT5U14GRVK593GRZ603PU5518UH,birds,elizabeth,3QY7M81QH8AG4FX12A8040GPHW57KF,eagle,yes,Please label the pictures below.,NA,NA,48,NA,"May want to use simpler objects or more easy to recognize ones. Not everyone will immediately be familiar with a Great Dane, especially a cartoon of one.",warmup/colibri.jpg,birds,graduated_college,AP9WIQ4P78XLH,English,male,NA,birds,NA,1,1566833997757,1,NA,This is an ,1.00,These are both,NA,eagle,warmup2
436,pug,Mon Aug 26 2019 11:39:57 GMT-0400 (Eastern Daylight Time),NA,8,warmup/great-dane.jpg,pug,This is a ,No issues that I saw.,1,32CXT5U14GRVK593GRZ603PU5518UH,dogs,elizabeth,3QY7M81QH8AG4FX12A8040GPHW57KF,great dane,yes,Please label the pictures below.,NA,NA,48,NA,"May want to use simpler objects or more easy to recognize ones. Not everyone will immediately be familiar with a Great Dane, especially a cartoon of one.",warmup/pug.jpg,dogs,graduated_college,AP9WIQ4P78XLH,English,male,NA,dogs,NA,2,1566833997757,1,NA,This is a ,1.00,These are both,NA,great dane,warmup2
436,dandelion,Mon Aug 26 2019 11:39:57 GMT-0400 (Eastern Daylight Time),NA,8,warmup/sunflower.png,dandelion,This is a ,No issues that I saw.,1,32CXT5U14GRVK593GRZ603PU5518UH,flowers,elizabeth,3QY7M81QH8AG4FX12A8040GPHW57KF,sunflower,yes,Please label the pictures below.,NA,NA,48,NA,"May want to use simpler objects or more easy to recognize ones. Not everyone will immediately be familiar with a Great Dane, especially a cartoon of one.",warmup/dandelion.jpg,flowers,graduated_college,AP9WIQ4P78XLH,English,male,NA,flowers,NA,3,1566833997757,1,NA,This is a ,1.00,These are both,NA,sunflower,warmup2
436,NA,Mon Aug 26 2019 11:39:57 GMT-0400 (Eastern Daylight Time),images/bird-parade2.png,8,NA,NA,That ,No issues that I saw.,1,32CXT5U14GRVK593GRZ603PU5518UH,birds,elizabeth,3QY7M81QH8AG4FX12A8040GPHW57KF,NA,yes,This one is also in the parade.,predicative,You say to your friend:,48,eagle,"May want to use simpler objects or more easy to recognize ones. Not everyone will immediately be familiar with a Great Dane, especially a cartoon of one.",NA,NA,graduated_college,AP9WIQ4P78XLH,English,male,,NA,You see a parade of animals.,1,1566833997757,NA,images/eagle.png,NA,1.00, is big.,big,NA,main2
436,NA,Mon Aug 26 2019 11:39:57 GMT-0400 (Eastern Daylight Time),images/dog-parade2.png,8,NA,NA,That ,No issues that I saw.,1,32CXT5U14GRVK593GRZ603PU5518UH,dogs,elizabeth,3QY7M81QH8AG4FX12A8040GPHW57KF,NA,yes,This one is also in the parade.,predicative,You say to your friend:,48,pug,"May want to use simpler objects or more easy to recognize ones. Not everyone will immediately be familiar with a Great Dane, especially a cartoon of one.",NA,NA,graduated_college,AP9WIQ4P78XLH,English,male,,NA,You see a parade of animals.,2,1566833997757,NA,images/pug.png,NA,1.00, is small.,small,NA,main2
436,NA,Mon Aug 26 2019 11:39:57 GMT-0400 (Eastern Daylight Time),images/flower-parade2.png,8,NA,NA,That ,No issues that I saw.,1,32CXT5U14GRVK593GRZ603PU5518UH,flowers,elizabeth,3QY7M81QH8AG4FX12A8040GPHW57KF,NA,yes,This one is also in the collection.,predicative,You say to your friend:,48,sunflower,"May want to use simpler objects or more easy to recognize ones. Not everyone will immediately be familiar with a Great Dane, especially a cartoon of one.",NA,NA,graduated_college,AP9WIQ4P78XLH,English,male,,NA,You see a collection of plants.,3,1566833997757,NA,images/sunflower.png,NA,1.00, is big.,big,NA,main2
435,small dog.,Mon Aug 26 2019 11:31:09 GMT-0400 (Eastern Daylight Time),NA,8,warmup/doberman.png,chihuahua,This is a ,Clown fish is two words.,1,38Z7YZ2SB3QWHIEZ84RS3RMJ5G0QI2,dogs,jennifer,373ERPL3YPWPPH735XKYA8UL1LQTR6,doberman,,Please label the pictures below.,NA,NA,32,NA,none,warmup/chihuahua.jpg,dogs.,some_college,A3CYHZ9BKS79E5,English,female,NA,dogs,NA,1,1566833469047,1,NA,This is a ,1.25,These are both,NA,big dog.,warmup1
435,small dog,Mon Aug 26 2019 11:31:09 GMT-0400 (Eastern Daylight Time),NA,8,warmup/doberman.png,chihuahua,This is a ,Clown fish is two words.,1,38Z7YZ2SB3QWHIEZ84RS3RMJ5G0QI2,dogs,jennifer,373ERPL3YPWPPH735XKYA8UL1LQTR6,doberman,,Please label the pictures below.,NA,NA,32,NA,none,warmup/chihuahua.jpg,dogs,some_college,A3CYHZ9BKS79E5,English,female,NA,dogs,NA,1,1566833469047,2,NA,This is a ,1.25,These are both,NA,big dog,warmup1
435,chihuahua,Mon Aug 26 2019 11:31:09 GMT-0400 (Eastern Daylight Time),NA,8,warmup/doberman.png,chihuahua,This is a ,Clown fish is two words.,1,38Z7YZ2SB3QWHIEZ84RS3RMJ5G0QI2,dogs,jennifer,373ERPL3YPWPPH735XKYA8UL1LQTR6,doberman,,Please label the pictures below.,NA,NA,32,NA,none,warmup/chihuahua.jpg,dogs,some_college,A3CYHZ9BKS79E5,English,female,NA,dogs,NA,1,1566833469047,3,NA,This is a ,1.25,These are both,NA,doberman,warmup1
435,oak,Mon Aug 26 2019 11:31:09 GMT-0400 (Eastern Daylight Time),NA,8,warmup/bonsai.jpg,redwood|sequoia,This is a ,Clown fish is two words.,1,38Z7YZ2SB3QWHIEZ84RS3RMJ5G0QI2,trees,jennifer,373ERPL3YPWPPH735XKYA8UL1LQTR6,bonsai,,Please label the pictures below.,NA,NA,32,NA,none,warmup/sequoia.jpg,trees,some_college,A3CYHZ9BKS79E5,English,female,NA,trees,NA,2,1566833469047,1,NA,This is a ,1.25,These are both,NA,bonsai,warmup1
435,redwood,Mon Aug 26 2019 11:31:09 GMT-0400 (Eastern Daylight Time),NA,8,warmup/bonsai.jpg,redwood|sequoia,This is a ,Clown fish is two words.,1,38Z7YZ2SB3QWHIEZ84RS3RMJ5G0QI2,trees,jennifer,373ERPL3YPWPPH735XKYA8UL1LQTR6,bonsai,,Please label the pictures below.,NA,NA,32,NA,none,warmup/sequoia.jpg,trees,some_college,A3CYHZ9BKS79E5,English,female,NA,trees,NA,2,1566833469047,2,NA,This is a ,1.25,These are both,NA,bonsai,warmup1
435,blue gill,Mon Aug 26 2019 11:31:09 GMT-0400 (Eastern Daylight Time),NA,8,warmup/clownfish.jpg,tuna,This is a ,Clown fish is two words.,1,38Z7YZ2SB3QWHIEZ84RS3RMJ5G0QI2,fish,jennifer,373ERPL3YPWPPH735XKYA8UL1LQTR6,clownfish,,Please label the pictures below.,NA,NA,32,NA,none,warmup/tuna.jpg,fish,some_college,A3CYHZ9BKS79E5,English,female,NA,fish,NA,3,1566833469047,1,NA,This is a ,1.25,These are both,NA,clown fish,warmup1
435,tuna,Mon Aug 26 2019 11:31:09 GMT-0400 (Eastern Daylight Time),NA,8,warmup/clownfish.jpg,tuna,This is a ,Clown fish is two words.,1,38Z7YZ2SB3QWHIEZ84RS3RMJ5G0QI2,fish,jennifer,373ERPL3YPWPPH735XKYA8UL1LQTR6,clownfish,,Please label the pictures below.,NA,NA,32,NA,none,warmup/tuna.jpg,fish,some_college,A3CYHZ9BKS79E5,English,female,NA,fish,NA,3,1566833469047,2,NA,This is a ,1.25,These are both,NA,clownfish,warmup1
435,NA,Mon Aug 26 2019 11:31:09 GMT-0400 (Eastern Daylight Time),images/tree-parade.png,8,NA,NA,That ,Clown fish is two words.,1,38Z7YZ2SB3QWHIEZ84RS3RMJ5G0QI2,trees,jennifer,373ERPL3YPWPPH735XKYA8UL1LQTR6,NA,,This one is also in the landscape.,predicative,You say to your friend:,32,tree,none,NA,NA,some_college,A3CYHZ9BKS79E5,English,female,,NA,You see the following items in a landscape.,1,1566833469047,NA,images/sequoia.png,NA,1.25, is big.,big,NA,main1
435,NA,Mon Aug 26 2019 11:31:09 GMT-0400 (Eastern Daylight Time),images/fish-parade2.png,8,NA,NA,That ,Clown fish is two words.,1,38Z7YZ2SB3QWHIEZ84RS3RMJ5G0QI2,fish,jennifer,373ERPL3YPWPPH735XKYA8UL1LQTR6,NA,,This one is also in the parade.,predicative,You say to your friend:,32,clownfish,none,NA,NA,some_college,A3CYHZ9BKS79E5,English,female,,NA,You see a parade of animals.,2,1566833469047,NA,images/clownfish.png,NA,1.25, is small.,small,NA,main1
435,NA,Mon Aug 26 2019 11:31:09 GMT-0400 (Eastern Daylight Time),images/dog-parade.png,8,NA,NA,That ,Clown fish is two words.,1,38Z7YZ2SB3QWHIEZ84RS3RMJ5G0QI2,dogs,jennifer,373ERPL3YPWPPH735XKYA8UL1LQTR6,NA,,This one is also in the parade.,predicative,You say to your friend:,32,chihuahua,none,NA,NA,some_college,A3CYHZ9BKS79E5,English,female,,NA,You see a parade of animals.,3,1566833469047,NA,images/chihuahua.png,NA,1.25, is small.,small,NA,main1
435,daisy,Mon Aug 26 2019 11:31:09 GMT-0400 (Eastern Daylight Time),NA,8,warmup/peony.png,daisy,This is a ,Clown fish is two words.,1,38Z7YZ2SB3QWHIEZ84RS3RMJ5G0QI2,flowers,jennifer,373ERPL3YPWPPH735XKYA8UL1LQTR6,peony,,Please label the pictures below.,NA,NA,32,NA,none,warmup/daisy.png,flowers,some_college,A3CYHZ9BKS79E5,English,female,NA,flowers,NA,1,1566833469047,1,NA,This is a ,1.25,These are both,NA,peony,warmup2
435,swan,Mon Aug 26 2019 11:31:09 GMT-0400 (Eastern Daylight Time),NA,8,warmup/canary.jpg,swan,This is a ,Clown fish is two words.,1,38Z7YZ2SB3QWHIEZ84RS3RMJ5G0QI2,birds,jennifer,373ERPL3YPWPPH735XKYA8UL1LQTR6,canary,,Please label the pictures below.,NA,NA,32,NA,none,warmup/swan.jpg,birds,some_college,A3CYHZ9BKS79E5,English,female,NA,birds,NA,2,1566833469047,1,NA,This is a ,1.25,These are both,NA,goldfinch,warmup2
435,swan,Mon Aug 26 2019 11:31:09 GMT-0400 (Eastern Daylight Time),NA,8,warmup/canary.jpg,swan,This is a ,Clown fish is two words.,1,38Z7YZ2SB3QWHIEZ84RS3RMJ5G0QI2,birds,jennifer,373ERPL3YPWPPH735XKYA8UL1LQTR6,canary,,Please label the pictures below.,NA,NA,32,NA,none,warmup/swan.jpg,birds,some_college,A3CYHZ9BKS79E5,English,female,NA,birds,NA,2,1566833469047,2,NA,This is a ,1.25,These are both,NA,canary,warmup2
435,humming bird,Mon Aug 26 2019 11:31:09 GMT-0400 (Eastern Daylight Time),NA,8,warmup/eagle.jpg,hummingbird,This is a ,Clown fish is two words.,1,38Z7YZ2SB3QWHIEZ84RS3RMJ5G0QI2,birds,jennifer,373ERPL3YPWPPH735XKYA8UL1LQTR6,eagle,,Please label the pictures below.,NA,NA,32,NA,none,warmup/colibri.jpg,birds,some_college,A3CYHZ9BKS79E5,English,female,NA,birds,NA,3,1566833469047,1,NA,This is an ,1.25,These are both,NA,eagle,warmup2
435,hummingbird,Mon Aug 26 2019 11:31:09 GMT-0400 (Eastern Daylight Time),NA,8,warmup/eagle.jpg,hummingbird,This is a ,Clown fish is two words.,1,38Z7YZ2SB3QWHIEZ84RS3RMJ5G0QI2,birds,jennifer,373ERPL3YPWPPH735XKYA8UL1LQTR6,eagle,,Please label the pictures below.,NA,NA,32,NA,none,warmup/colibri.jpg,birds,some_college,A3CYHZ9BKS79E5,English,female,NA,birds,NA,3,1566833469047,2,NA,This is an ,1.25,These are both,NA,eagle,warmup2
435,NA,Mon Aug 26 2019 11:31:09 GMT-0400 (Eastern Daylight Time),images/flower-parade.png,8,NA,NA,That ,Clown fish is two words.,1,38Z7YZ2SB3QWHIEZ84RS3RMJ5G0QI2,flowers,jennifer,373ERPL3YPWPPH735XKYA8UL1LQTR6,NA,,This one is also in the collection.,predicative,You say to your friend:,32,peony,none,NA,NA,some_college,A3CYHZ9BKS79E5,English,female,,NA,You see a collection of plants.,1,1566833469047,NA,images/peony.png,NA,1.25, is big.,big,NA,main2
435,NA,Mon Aug 26 2019 11:31:09 GMT-0400 (Eastern Daylight Time),images/bird-parade2.png,8,NA,NA,That ,Clown fish is two words.,1,38Z7YZ2SB3QWHIEZ84RS3RMJ5G0QI2,birds,jennifer,373ERPL3YPWPPH735XKYA8UL1LQTR6,NA,,This one is also in the parade.,predicative,You say to your friend:,32,eagle,none,NA,NA,some_college,A3CYHZ9BKS79E5,English,female,,NA,You see a parade of animals.,2,1566833469047,NA,images/eagle.png,NA,1.25, is big.,big,NA,main2
435,NA,Mon Aug 26 2019 11:31:09 GMT-0400 (Eastern Daylight Time),images/bird-parade3.png,8,NA,NA,That ,Clown fish is two words.,1,38Z7YZ2SB3QWHIEZ84RS3RMJ5G0QI2,birds,jennifer,373ERPL3YPWPPH735XKYA8UL1LQTR6,NA,,This one is also in the parade.,predicative,You say to your friend:,32,canary,none,NA,NA,some_college,A3CYHZ9BKS79E5,English,female,,NA,You see a parade of animals.,3,1566833469047,NA,images/canary.png,NA,1.25, is small.,small,NA,main2
434,chihuahua,Mon Aug 26 2019 10:34:19 GMT-0500 (Central Daylight Time),NA,8,warmup/doberman.png,chihuahua,This is a ,,2,32CXT5U14GRVK593GRZ603PU5518UH,dogs,Linda,3VP0C6EFSHKSQ3JZ4CGODZ8XBQGM60,doberman,yes,Please label the pictures below.,NA,NA,28,NA,,warmup/chihuahua.jpg,dogs,some_college,AN9MVFWRCF2OP,English,male,NA,dogs,NA,1,1566833659311,1,NA,This is a ,1.00,These are both,NA,doberman,warmup1
434,daisy,Mon Aug 26 2019 10:34:19 GMT-0500 (Central Daylight Time),NA,8,warmup/peony.png,daisy,This is a ,,2,32CXT5U14GRVK593GRZ603PU5518UH,flowers,Linda,3VP0C6EFSHKSQ3JZ4CGODZ8XBQGM60,peony,yes,Please label the pictures below.,NA,NA,28,NA,,warmup/daisy.png,flowers,some_college,AN9MVFWRCF2OP,English,male,NA,flowers,NA,2,1566833659311,1,NA,This is a ,1.00,These are both,NA,rose,warmup1
434,daisy,Mon Aug 26 2019 10:34:19 GMT-0500 (Central Daylight Time),NA,8,warmup/peony.png,daisy,This is a ,,2,32CXT5U14GRVK593GRZ603PU5518UH,flowers,Linda,3VP0C6EFSHKSQ3JZ4CGODZ8XBQGM60,peony,yes,Please label the pictures below.,NA,NA,28,NA,,warmup/daisy.png,flowers,some_college,AN9MVFWRCF2OP,English,male,NA,flowers,NA,2,1566833659311,2,NA,This is a ,1.00,These are both,NA,peony,warmup1
434,swan,Mon Aug 26 2019 10:34:19 GMT-0500 (Central Daylight Time),NA,8,warmup/canary.jpg,swan,This is a ,,2,32CXT5U14GRVK593GRZ603PU5518UH,birds,Linda,3VP0C6EFSHKSQ3JZ4CGODZ8XBQGM60,canary,yes,Please label the pictures below.,NA,NA,28,NA,,warmup/swan.jpg,birds,some_college,AN9MVFWRCF2OP,English,male,NA,birds,NA,3,1566833659311,1,NA,This is a ,1.00,These are both,NA,canary,warmup1
434,NA,Mon Aug 26 2019 10:34:19 GMT-0500 (Central Daylight Time),images/flower-parade.png,8,NA,NA,That ,,2,32CXT5U14GRVK593GRZ603PU5518UH,flowers,Linda,3VP0C6EFSHKSQ3JZ4CGODZ8XBQGM60,NA,yes,This one is also in the collection.,predicative,You say to your friend:,28,flower,,NA,NA,some_college,AN9MVFWRCF2OP,English,male,,NA,You see a collection of plants.,1,1566833659311,NA,images/daisy.png,NA,1.00, is small.,small,NA,main1
434,NA,Mon Aug 26 2019 10:34:19 GMT-0500 (Central Daylight Time),images/bird-parade3.png,8,NA,NA,That ,,2,32CXT5U14GRVK593GRZ603PU5518UH,birds,Linda,3VP0C6EFSHKSQ3JZ4CGODZ8XBQGM60,NA,yes,This one is also in the parade.,predicative,You say to your friend:,28,swan,,NA,NA,some_college,AN9MVFWRCF2OP,English,male,,NA,You see a parade of animals.,2,1566833659311,NA,images/swan.png,NA,1.00, is big.,big,NA,main1
434,NA,Mon Aug 26 2019 10:34:19 GMT-0500 (Central Daylight Time),images/dog-parade.png,8,NA,NA,That ,,2,32CXT5U14GRVK593GRZ603PU5518UH,dogs,Linda,3VP0C6EFSHKSQ3JZ4CGODZ8XBQGM60,NA,yes,This one is also in the parade.,predicative,You say to your friend:,28,dog,,NA,NA,some_college,AN9MVFWRCF2OP,English,male,,NA,You see a parade of animals.,3,1566833659311,NA,images/chihuahua.png,NA,1.00, is small.,small,NA,main1
434,redwood,Mon Aug 26 2019 10:34:19 GMT-0500 (Central Daylight Time),NA,8,warmup/bonsai.jpg,redwood|sequoia,This is a ,,2,32CXT5U14GRVK593GRZ603PU5518UH,trees,Linda,3VP0C6EFSHKSQ3JZ4CGODZ8XBQGM60,bonsai,yes,Please label the pictures below.,NA,NA,28,NA,,warmup/sequoia.jpg,trees,some_college,AN9MVFWRCF2OP,English,male,NA,trees,NA,1,1566833659311,1,NA,This is a ,1.00,These are both,NA,bonsai,warmup2
434,pug,Mon Aug 26 2019 10:34:19 GMT-0500 (Central Daylight Time),NA,8,warmup/great-dane.jpg,pug,This is a ,,2,32CXT5U14GRVK593GRZ603PU5518UH,dogs,Linda,3VP0C6EFSHKSQ3JZ4CGODZ8XBQGM60,great dane,yes,Please label the pictures below.,NA,NA,28,NA,,warmup/pug.jpg,dogs,some_college,AN9MVFWRCF2OP,English,male,NA,dogs,NA,2,1566833659311,1,NA,This is a ,1.00,These are both,NA,labrador,warmup2
434,pug,Mon Aug 26 2019 10:34:19 GMT-0500 (Central Daylight Time),NA,8,warmup/great-dane.jpg,pug,This is a ,,2,32CXT5U14GRVK593GRZ603PU5518UH,dogs,Linda,3VP0C6EFSHKSQ3JZ4CGODZ8XBQGM60,great dane,yes,Please label the pictures below.,NA,NA,28,NA,,warmup/pug.jpg,dogs,some_college,AN9MVFWRCF2OP,English,male,NA,dogs,NA,2,1566833659311,2,NA,This is a ,1.00,These are both,NA,great dane,warmup2
434,swordfish,Mon Aug 26 2019 10:34:19 GMT-0500 (Central Daylight Time),NA,8,warmup/goldfish.png,swordfish,This is a ,,2,32CXT5U14GRVK593GRZ603PU5518UH,fish,Linda,3VP0C6EFSHKSQ3JZ4CGODZ8XBQGM60,goldfish,yes,Please label the pictures below.,NA,NA,28,NA,,warmup/swordfish.jpg,fish,some_college,AN9MVFWRCF2OP,English,male,NA,fish,NA,3,1566833659311,1,NA,This is a ,1.00,These are both,NA,goldfish,warmup2
434,NA,Mon Aug 26 2019 10:34:19 GMT-0500 (Central Daylight Time),images/fish-parade.png,8,NA,NA,That ,,2,32CXT5U14GRVK593GRZ603PU5518UH,fish,Linda,3VP0C6EFSHKSQ3JZ4CGODZ8XBQGM60,NA,yes,This one is also in the parade.,predicative,You say to your friend:,28,fish,,NA,NA,some_college,AN9MVFWRCF2OP,English,male,,NA,You see a parade of animals.,1,1566833659311,NA,images/swordfish.png,NA,1.00, is big.,big,NA,main2
434,NA,Mon Aug 26 2019 10:34:19 GMT-0500 (Central Daylight Time),images/tree-parade.png,8,NA,NA,That ,,2,32CXT5U14GRVK593GRZ603PU5518UH,trees,Linda,3VP0C6EFSHKSQ3JZ4CGODZ8XBQGM60,NA,yes,This one is also in the landscape.,predicative,You say to your friend:,28,tree,,NA,NA,some_college,AN9MVFWRCF2OP,English,male,,NA,You see the following items in a landscape.,2,1566833659311,NA,images/sequoia.png,NA,1.00, is big.,big,NA,main2
434,NA,Mon Aug 26 2019 10:34:19 GMT-0500 (Central Daylight Time),images/dog-parade2.png,8,NA,NA,That ,,2,32CXT5U14GRVK593GRZ603PU5518UH,dogs,Linda,3VP0C6EFSHKSQ3JZ4CGODZ8XBQGM60,NA,yes,This one is also in the parade.,predicative,You say to your friend:,28,dog,,NA,NA,some_college,AN9MVFWRCF2OP,English,male,,NA,You see a parade of animals.,3,1566833659311,NA,images/pug.png,NA,1.00, is small.,small,NA,main2
430,cuckoo,Mon Aug 26 2019 10:17:16 GMT-0500 (Central Daylight Time),NA,8,warmup/eagle.jpg,hummingbird,This is a ,no,2,36GJS3V78VE1Z44RNQ7GLEXHC8GJGC,birds,barbara,3STRJBFXOXF32DU8FDB19W876TGKTO,eagle,yes,Please label the pictures below.,NA,NA,28,NA,good,warmup/colibri.jpg,birds,higher_degree,A33UY8EOVBGFX0,english,male,NA,birds,NA,1,1566832636493,1,NA,This is an ,10,These are both,NA,eagle,warmup1
430,cuckoo,Mon Aug 26 2019 10:17:16 GMT-0500 (Central Daylight Time),NA,8,warmup/eagle.jpg,hummingbird,This is a ,no,2,36GJS3V78VE1Z44RNQ7GLEXHC8GJGC,birds,barbara,3STRJBFXOXF32DU8FDB19W876TGKTO,eagle,yes,Please label the pictures below.,NA,NA,28,NA,good,warmup/colibri.jpg,birds,higher_degree,A33UY8EOVBGFX0,english,male,NA,birds,NA,1,1566832636493,2,NA,This is an ,10,These are both,NA,eagle,warmup1
430,cuckoo,Mon Aug 26 2019 10:17:16 GMT-0500 (Central Daylight Time),NA,8,warmup/eagle.jpg,hummingbird,This is a ,no,2,36GJS3V78VE1Z44RNQ7GLEXHC8GJGC,birds,barbara,3STRJBFXOXF32DU8FDB19W876TGKTO,eagle,yes,Please label the pictures below.,NA,NA,28,NA,good,warmup/colibri.jpg,birds,higher_degree,A33UY8EOVBGFX0,english,male,NA,birds,NA,1,1566832636493,3,NA,This is an ,10,These are both,NA,eagle,warmup1
430,cuckoo,Mon Aug 26 2019 10:17:16 GMT-0500 (Central Daylight Time),NA,8,warmup/eagle.jpg,hummingbird,This is a ,no,2,36GJS3V78VE1Z44RNQ7GLEXHC8GJGC,birds,barbara,3STRJBFXOXF32DU8FDB19W876TGKTO,eagle,yes,Please label the pictures below.,NA,NA,28,NA,good,warmup/colibri.jpg,birds,higher_degree,A33UY8EOVBGFX0,english,male,NA,birds,NA,1,1566832636493,4,NA,This is an ,10,These are both,NA,eagle,warmup1
430,hummingbird,Mon Aug 26 2019 10:17:16 GMT-0500 (Central Daylight Time),NA,8,warmup/eagle.jpg,hummingbird,This is a ,no,2,36GJS3V78VE1Z44RNQ7GLEXHC8GJGC,birds,barbara,3STRJBFXOXF32DU8FDB19W876TGKTO,eagle,yes,Please label the pictures below.,NA,NA,28,NA,good,warmup/colibri.jpg,birds,higher_degree,A33UY8EOVBGFX0,english,male,NA,birds,NA,1,1566832636493,5,NA,This is an ,10,These are both,NA,eagle,warmup1
430,shark,Mon Aug 26 2019 10:17:16 GMT-0500 (Central Daylight Time),NA,8,warmup/goldfish.png,swordfish,This is a ,no,2,36GJS3V78VE1Z44RNQ7GLEXHC8GJGC,fish,barbara,3STRJBFXOXF32DU8FDB19W876TGKTO,goldfish,yes,Please label the pictures below.,NA,NA,28,NA,good,warmup/swordfish.jpg,fish,higher_degree,A33UY8EOVBGFX0,english,male,NA,fish,NA,2,1566832636493,1,NA,This is a ,10,These are both,NA,fish,warmup1
430,swordfish,Mon Aug 26 2019 10:17:16 GMT-0500 (Central Daylight Time),NA,8,warmup/goldfish.png,swordfish,This is a ,no,2,36GJS3V78VE1Z44RNQ7GLEXHC8GJGC,fish,barbara,3STRJBFXOXF32DU8FDB19W876TGKTO,goldfish,yes,Please label the pictures below.,NA,NA,28,NA,good,warmup/swordfish.jpg,fish,higher_degree,A33UY8EOVBGFX0,english,male,NA,fish,NA,2,1566832636493,2,NA,This is a ,10,These are both,NA,goldfish,warmup1
430,rose,Mon Aug 26 2019 10:17:16 GMT-0500 (Central Daylight Time),NA,8,warmup/sunflower.png,dandelion,This is a ,no,2,36GJS3V78VE1Z44RNQ7GLEXHC8GJGC,flowers,barbara,3STRJBFXOXF32DU8FDB19W876TGKTO,sunflower,yes,Please label the pictures below.,NA,NA,28,NA,good,warmup/dandelion.jpg,flowers,higher_degree,A33UY8EOVBGFX0,english,male,NA,flowers,NA,3,1566832636493,1,NA,This is a ,10,These are both,NA,sunflower,warmup1
430,dandelion,Mon Aug 26 2019 10:17:16 GMT-0500 (Central Daylight Time),NA,8,warmup/sunflower.png,dandelion,This is a ,no,2,36GJS3V78VE1Z44RNQ7GLEXHC8GJGC,flowers,barbara,3STRJBFXOXF32DU8FDB19W876TGKTO,sunflower,yes,Please label the pictures below.,NA,NA,28,NA,good,warmup/dandelion.jpg,flowers,higher_degree,A33UY8EOVBGFX0,english,male,NA,flowers,NA,3,1566832636493,2,NA,This is a ,10,These are both,NA,sunflower,warmup1
430,NA,Mon Aug 26 2019 10:17:16 GMT-0500 (Central Daylight Time),images/bird-parade2.png,8,NA,NA,That ,no,2,36GJS3V78VE1Z44RNQ7GLEXHC8GJGC,birds,barbara,3STRJBFXOXF32DU8FDB19W876TGKTO,NA,yes,This one is also in the parade.,predicative,You say to your friend:,28,hummingbird,good,NA,NA,higher_degree,A33UY8EOVBGFX0,english,male,,NA,You see a parade of animals.,1,1566832636493,NA,images/hummingbird.png,NA,10, is small.,small,NA,main1
430,NA,Mon Aug 26 2019 10:17:16 GMT-0500 (Central Daylight Time),images/fish-parade.png,8,NA,NA,That ,no,2,36GJS3V78VE1Z44RNQ7GLEXHC8GJGC,fish,barbara,3STRJBFXOXF32DU8FDB19W876TGKTO,NA,yes,This one is also in the parade.,predicative,You say to your friend:,28,swordfish,good,NA,NA,higher_degree,A33UY8EOVBGFX0,english,male,,NA,You see a parade of animals.,2,1566832636493,NA,images/swordfish.png,NA,10, is big.,big,NA,main1
430,NA,Mon Aug 26 2019 10:17:16 GMT-0500 (Central Daylight Time),images/flower-parade2.png,8,NA,NA,That ,no,2,36GJS3V78VE1Z44RNQ7GLEXHC8GJGC,flowers,barbara,3STRJBFXOXF32DU8FDB19W876TGKTO,NA,yes,This one is also in the collection.,predicative,You say to your friend:,28,dandelion,good,NA,NA,higher_degree,A33UY8EOVBGFX0,english,male,,NA,You see a collection of plants.,3,1566832636493,NA,images/dandelion.png,NA,10, is small.,small,NA,main1
430,swan,Mon Aug 26 2019 10:17:16 GMT-0500 (Central Daylight Time),NA,8,warmup/canary.jpg,swan,This is a ,no,2,36GJS3V78VE1Z44RNQ7GLEXHC8GJGC,birds,barbara,3STRJBFXOXF32DU8FDB19W876TGKTO,canary,yes,Please label the pictures below.,NA,NA,28,NA,good,warmup/swan.jpg,birds,higher_degree,A33UY8EOVBGFX0,english,male,NA,birds,NA,1,1566832636493,1,NA,This is a ,10,These are both,NA,parrot,warmup2
430,swan,Mon Aug 26 2019 10:17:16 GMT-0500 (Central Daylight Time),NA,8,warmup/canary.jpg,swan,This is a ,no,2,36GJS3V78VE1Z44RNQ7GLEXHC8GJGC,birds,barbara,3STRJBFXOXF32DU8FDB19W876TGKTO,canary,yes,Please label the pictures below.,NA,NA,28,NA,good,warmup/swan.jpg,birds,higher_degree,A33UY8EOVBGFX0,english,male,NA,birds,NA,1,1566832636493,2,NA,This is a ,10,These are both,NA,canary,warmup2
430,rose,Mon Aug 26 2019 10:17:16 GMT-0500 (Central Daylight Time),NA,8,warmup/peony.png,daisy,This is a ,no,2,36GJS3V78VE1Z44RNQ7GLEXHC8GJGC,flowers,barbara,3STRJBFXOXF32DU8FDB19W876TGKTO,peony,yes,Please label the pictures below.,NA,NA,28,NA,good,warmup/daisy.png,fleoers,higher_degree,A33UY8EOVBGFX0,english,male,NA,flowers,NA,2,1566832636493,1,NA,This is a ,10,These are both,NA,rose,warmup2
430,daisy,Mon Aug 26 2019 10:17:16 GMT-0500 (Central Daylight Time),NA,8,warmup/peony.png,daisy,This is a ,no,2,36GJS3V78VE1Z44RNQ7GLEXHC8GJGC,flowers,barbara,3STRJBFXOXF32DU8FDB19W876TGKTO,peony,yes,Please label the pictures below.,NA,NA,28,NA,good,warmup/daisy.png,flowers,higher_degree,A33UY8EOVBGFX0,english,male,NA,flowers,NA,2,1566832636493,2,NA,This is a ,10,These are both,NA,peony,warmup2
430,tree,Mon Aug 26 2019 10:17:16 GMT-0500 (Central Daylight Time),NA,8,warmup/bonsai.jpg,redwood|sequoia,This is a ,no,2,36GJS3V78VE1Z44RNQ7GLEXHC8GJGC,trees,barbara,3STRJBFXOXF32DU8FDB19W876TGKTO,bonsai,yes,Please label the pictures below.,NA,NA,28,NA,good,warmup/sequoia.jpg,trees,higher_degree,A33UY8EOVBGFX0,english,male,NA,trees,NA,3,1566832636493,1,NA,This is a ,10,These are both,NA,tree,warmup2
430,redwood,Mon Aug 26 2019 10:17:16 GMT-0500 (Central Daylight Time),NA,8,warmup/bonsai.jpg,redwood|sequoia,This is a ,no,2,36GJS3V78VE1Z44RNQ7GLEXHC8GJGC,trees,barbara,3STRJBFXOXF32DU8FDB19W876TGKTO,bonsai,yes,Please label the pictures below.,NA,NA,28,NA,good,warmup/sequoia.jpg,trees,higher_degree,A33UY8EOVBGFX0,english,male,NA,trees,NA,3,1566832636493,2,NA,This is a ,10,These are both,NA,bonsai,warmup2
430,NA,Mon Aug 26 2019 10:17:16 GMT-0500 (Central Daylight Time),images/bird-parade3.png,8,NA,NA,That ,no,2,36GJS3V78VE1Z44RNQ7GLEXHC8GJGC,birds,barbara,3STRJBFXOXF32DU8FDB19W876TGKTO,NA,yes,This one is also in the parade.,predicative,You say to your friend:,28,swan,good,NA,NA,higher_degree,A33UY8EOVBGFX0,english,male,,NA,You see a parade of animals.,1,1566832636493,NA,images/swan.png,NA,10, is big.,big,NA,main2
430,NA,Mon Aug 26 2019 10:17:16 GMT-0500 (Central Daylight Time),images/flower-parade.png,8,NA,NA,That ,no,2,36GJS3V78VE1Z44RNQ7GLEXHC8GJGC,flowers,barbara,3STRJBFXOXF32DU8FDB19W876TGKTO,NA,yes,This one is also in the collection.,predicative,You say to your friend:,28,daisy,good,NA,NA,higher_degree,A33UY8EOVBGFX0,english,male,,NA,You see a collection of plants.,2,1566832636493,NA,images/daisy.png,NA,10, is small.,small,NA,main2
430,NA,Mon Aug 26 2019 10:17:16 GMT-0500 (Central Daylight Time),images/tree-parade.png,8,NA,NA,That ,no,2,36GJS3V78VE1Z44RNQ7GLEXHC8GJGC,trees,barbara,3STRJBFXOXF32DU8FDB19W876TGKTO,NA,yes,This one is also in the landscape.,predicative,You say to your friend:,28,redwood,good,NA,NA,higher_degree,A33UY8EOVBGFX0,english,male,,NA,You see the following items in a landscape.,3,1566832636493,NA,images/sequoia.png,NA,10, is big.,big,NA,main2
429,lily,Mon Aug 26 2019 11:19:18 GMT-0400 (Eastern Daylight Time),NA,8,warmup/peony.png,daisy,This is a ,,2,3MDKGGG61QBTGEBQN7CYBT71GW4T6P,flowers,jessica,3EFE17QCRDTBLNGLKS3EMZWTCTYSH3,peony,,Please label the pictures below.,NA,NA,23,NA,,warmup/daisy.png,flowers,some_college,A11TREGDHSUSJW,English,male,NA,flowers,NA,1,1566832758947,1,NA,This is a ,1.50,These are both,NA,rose,warmup1
429,daisy,Mon Aug 26 2019 11:19:18 GMT-0400 (Eastern Daylight Time),NA,8,warmup/peony.png,daisy,This is a ,,2,3MDKGGG61QBTGEBQN7CYBT71GW4T6P,flowers,jessica,3EFE17QCRDTBLNGLKS3EMZWTCTYSH3,peony,,Please label the pictures below.,NA,NA,23,NA,,warmup/daisy.png,flowers,some_college,A11TREGDHSUSJW,English,male,NA,flowers,NA,1,1566832758947,2,NA,This is a ,1.50,These are both,NA,peony,warmup1
429,swan,Mon Aug 26 2019 11:19:18 GMT-0400 (Eastern Daylight Time),NA,8,warmup/canary.jpg,swan,This is a ,,2,3MDKGGG61QBTGEBQN7CYBT71GW4T6P,birds,jessica,3EFE17QCRDTBLNGLKS3EMZWTCTYSH3,canary,,Please label the pictures below.,NA,NA,23,NA,,warmup/swan.jpg,birds,some_college,A11TREGDHSUSJW,English,male,NA,birds,NA,2,1566832758947,1,NA,This is a ,1.50,These are both,NA,pigeon,warmup1
429,swan,Mon Aug 26 2019 11:19:18 GMT-0400 (Eastern Daylight Time),NA,8,warmup/canary.jpg,swan,This is a ,,2,3MDKGGG61QBTGEBQN7CYBT71GW4T6P,birds,jessica,3EFE17QCRDTBLNGLKS3EMZWTCTYSH3,canary,,Please label the pictures below.,NA,NA,23,NA,,warmup/swan.jpg,birds,some_college,A11TREGDHSUSJW,English,male,NA,birds,NA,2,1566832758947,2,NA,This is a ,1.50,These are both,NA,canary,warmup1
429,goose,Mon Aug 26 2019 11:19:18 GMT-0400 (Eastern Daylight Time),NA,8,warmup/sparrow.jpg,goose,This is a ,,2,3MDKGGG61QBTGEBQN7CYBT71GW4T6P,birds,jessica,3EFE17QCRDTBLNGLKS3EMZWTCTYSH3,sparrow,,Please label the pictures below.,NA,NA,23,NA,,warmup/goose.png,birds,some_college,A11TREGDHSUSJW,English,male,NA,birds,NA,3,1566832758947,1,NA,This is a ,1.50,These are both,NA,bird,warmup1
429,goose,Mon Aug 26 2019 11:19:18 GMT-0400 (Eastern Daylight Time),NA,8,warmup/sparrow.jpg,goose,This is a ,,2,3MDKGGG61QBTGEBQN7CYBT71GW4T6P,birds,jessica,3EFE17QCRDTBLNGLKS3EMZWTCTYSH3,sparrow,,Please label the pictures below.,NA,NA,23,NA,,warmup/goose.png,birds,some_college,A11TREGDHSUSJW,English,male,NA,birds,NA,3,1566832758947,2,NA,This is a ,1.50,These are both,NA,sparrow,warmup1
429,NA,Mon Aug 26 2019 11:19:18 GMT-0400 (Eastern Daylight Time),images/bird-parade.png,8,NA,NA,That ,,2,3MDKGGG61QBTGEBQN7CYBT71GW4T6P,birds,jessica,3EFE17QCRDTBLNGLKS3EMZWTCTYSH3,NA,,This one is also in the parade.,predicative,You say to your friend:,23,sparrow,,NA,NA,some_college,A11TREGDHSUSJW,English,male,,NA,You see a parade of animals.,1,1566832758947,NA,images/sparrow.png,NA,1.50, is small.,small,NA,main1
429,NA,Mon Aug 26 2019 11:19:18 GMT-0400 (Eastern Daylight Time),images/flower-parade.png,8,NA,NA,That ,,2,3MDKGGG61QBTGEBQN7CYBT71GW4T6P,flowers,jessica,3EFE17QCRDTBLNGLKS3EMZWTCTYSH3,NA,,This one is also in the collection.,predicative,You say to your friend:,23,peony,,NA,NA,some_college,A11TREGDHSUSJW,English,male,,NA,You see a collection of plants.,2,1566832758947,NA,images/peony.png,NA,1.50, is big.,big,NA,main1
429,NA,Mon Aug 26 2019 11:19:18 GMT-0400 (Eastern Daylight Time),images/bird-parade3.png,8,NA,NA,That ,,2,3MDKGGG61QBTGEBQN7CYBT71GW4T6P,birds,jessica,3EFE17QCRDTBLNGLKS3EMZWTCTYSH3,NA,,This one is also in the parade.,predicative,You say to your friend:,23,swan,,NA,NA,some_college,A11TREGDHSUSJW,English,male,,NA,You see a parade of animals.,3,1566832758947,NA,images/swan.png,NA,1.50, is big.,big,NA,main1
429,pug,Mon Aug 26 2019 11:19:18 GMT-0400 (Eastern Daylight Time),NA,8,warmup/great-dane.jpg,pug,This is a ,,2,3MDKGGG61QBTGEBQN7CYBT71GW4T6P,dogs,jessica,3EFE17QCRDTBLNGLKS3EMZWTCTYSH3,great dane,,Please label the pictures below.,NA,NA,23,NA,,warmup/pug.jpg,dogs,some_college,A11TREGDHSUSJW,English,male,NA,dogs,NA,1,1566832758947,1,NA,This is a ,1.50,These are both,NA,doberman,warmup2
429,pug,Mon Aug 26 2019 11:19:18 GMT-0400 (Eastern Daylight Time),NA,8,warmup/great-dane.jpg,pug,This is a ,,2,3MDKGGG61QBTGEBQN7CYBT71GW4T6P,dogs,jessica,3EFE17QCRDTBLNGLKS3EMZWTCTYSH3,great dane,,Please label the pictures below.,NA,NA,23,NA,,warmup/pug.jpg,dogs,some_college,A11TREGDHSUSJW,English,male,NA,dogs,NA,1,1566832758947,2,NA,This is a ,1.50,These are both,NA,great dane,warmup2
429,lily,Mon Aug 26 2019 11:19:18 GMT-0400 (Eastern Daylight Time),NA,8,warmup/sunflower.png,dandelion,This is a ,,2,3MDKGGG61QBTGEBQN7CYBT71GW4T6P,flowers,jessica,3EFE17QCRDTBLNGLKS3EMZWTCTYSH3,sunflower,,Please label the pictures below.,NA,NA,23,NA,,warmup/dandelion.jpg,flowers,some_college,A11TREGDHSUSJW,English,male,NA,flowers,NA,2,1566832758947,1,NA,This is a ,1.50,These are both,NA,sunflower,warmup2
429,dandelion,Mon Aug 26 2019 11:19:18 GMT-0400 (Eastern Daylight Time),NA,8,warmup/sunflower.png,dandelion,This is a ,,2,3MDKGGG61QBTGEBQN7CYBT71GW4T6P,flowers,jessica,3EFE17QCRDTBLNGLKS3EMZWTCTYSH3,sunflower,,Please label the pictures below.,NA,NA,23,NA,,warmup/dandelion.jpg,flowers,some_college,A11TREGDHSUSJW,English,male,NA,flowers,NA,2,1566832758947,2,NA,This is a ,1.50,These are both,NA,sunflower,warmup2
429,tuna,Mon Aug 26 2019 11:19:18 GMT-0400 (Eastern Daylight Time),NA,8,warmup/clownfish.jpg,tuna,This is a ,,2,3MDKGGG61QBTGEBQN7CYBT71GW4T6P,fish,jessica,3EFE17QCRDTBLNGLKS3EMZWTCTYSH3,clownfish,,Please label the pictures below.,NA,NA,23,NA,,warmup/tuna.jpg,fish,some_college,A11TREGDHSUSJW,English,male,NA,fish,NA,3,1566832758947,1,NA,This is a ,1.50,These are both,NA,clownfish,warmup2
429,NA,Mon Aug 26 2019 11:19:18 GMT-0400 (Eastern Daylight Time),images/flower-parade2.png,8,NA,NA,That ,,2,3MDKGGG61QBTGEBQN7CYBT71GW4T6P,flowers,jessica,3EFE17QCRDTBLNGLKS3EMZWTCTYSH3,NA,,This one is also in the collection.,predicative,You say to your friend:,23,dandelion,,NA,NA,some_college,A11TREGDHSUSJW,English,male,,NA,You see a collection of plants.,1,1566832758947,NA,images/dandelion.png,NA,1.50, is small.,small,NA,main2
429,NA,Mon Aug 26 2019 11:19:18 GMT-0400 (Eastern Daylight Time),images/dog-parade2.png,8,NA,NA,That ,,2,3MDKGGG61QBTGEBQN7CYBT71GW4T6P,dogs,jessica,3EFE17QCRDTBLNGLKS3EMZWTCTYSH3,NA,,This one is also in the parade.,predicative,You say to your friend:,23,pug,,NA,NA,some_college,A11TREGDHSUSJW,English,male,,NA,You see a parade of animals.,2,1566832758947,NA,images/pug.png,NA,1.50, is small.,small,NA,main2
429,NA,Mon Aug 26 2019 11:19:18 GMT-0400 (Eastern Daylight Time),images/fish-parade2.png,8,NA,NA,That ,,2,3MDKGGG61QBTGEBQN7CYBT71GW4T6P,fish,jessica,3EFE17QCRDTBLNGLKS3EMZWTCTYSH3,NA,,This one is also in the parade.,predicative,You say to your friend:,23,tuna,,NA,NA,some_college,A11TREGDHSUSJW,English,male,,NA,You see a parade of animals.,3,1566832758947,NA,images/tuna.png,NA,1.50, is big.,big,NA,main2
426,swordfish,Mon Aug 26 2019 10:14:09 GMT-0500 (Central Daylight Time),NA,8,warmup/goldfish.png,swordfish,This is a ,,1,36GJS3V78VE1Z44RNQ7GLEXHC8GJGC,fish,Jennifer,3ZSANO2JCGVR7RPFP2FEJEKGWE2FS9,goldfish,yes,Please label the pictures below.,NA,NA,29,NA,,warmup/swordfish.jpg,fish,some_college,A2YO837C0O1E91,English,female,NA,fish,NA,1,1566832449535,1,NA,This is a ,1.00,These are both,NA,goldfish,warmup1
426,hummingbird,Mon Aug 26 2019 10:14:09 GMT-0500 (Central Daylight Time),NA,8,warmup/eagle.jpg,hummingbird,This is a ,,1,36GJS3V78VE1Z44RNQ7GLEXHC8GJGC,birds,Jennifer,3ZSANO2JCGVR7RPFP2FEJEKGWE2FS9,eagle,yes,Please label the pictures below.,NA,NA,29,NA,,warmup/colibri.jpg,birds,some_college,A2YO837C0O1E91,English,female,NA,birds,NA,2,1566832449535,1,NA,This is an ,1.00,These are both,NA,eagle,warmup1
426,goose,Mon Aug 26 2019 10:14:09 GMT-0500 (Central Daylight Time),NA,8,warmup/sparrow.jpg,goose,This is a ,,1,36GJS3V78VE1Z44RNQ7GLEXHC8GJGC,birds,Jennifer,3ZSANO2JCGVR7RPFP2FEJEKGWE2FS9,sparrow,yes,Please label the pictures below.,NA,NA,29,NA,,warmup/goose.png,birds,some_college,A2YO837C0O1E91,English,female,NA,birds,NA,3,1566832449535,1,NA,This is a ,1.00,These are both,NA,finch,warmup1
426,goose,Mon Aug 26 2019 10:14:09 GMT-0500 (Central Daylight Time),NA,8,warmup/sparrow.jpg,goose,This is a ,,1,36GJS3V78VE1Z44RNQ7GLEXHC8GJGC,birds,Jennifer,3ZSANO2JCGVR7RPFP2FEJEKGWE2FS9,sparrow,yes,Please label the pictures below.,NA,NA,29,NA,,warmup/goose.png,birds,some_college,A2YO837C0O1E91,English,female,NA,birds,NA,3,1566832449535,2,NA,This is a ,1.00,These are both,NA,sparrow,warmup1
426,NA,Mon Aug 26 2019 10:14:09 GMT-0500 (Central Daylight Time),images/fish-parade.png,8,NA,NA,That ,,1,36GJS3V78VE1Z44RNQ7GLEXHC8GJGC,fish,Jennifer,3ZSANO2JCGVR7RPFP2FEJEKGWE2FS9,NA,yes,This one is also in the parade.,predicative,You say to your friend:,29,swordfish,,NA,NA,some_college,A2YO837C0O1E91,English,female,,NA,You see a parade of animals.,1,1566832449535,NA,images/swordfish.png,NA,1.00, is big.,big,NA,main1
426,NA,Mon Aug 26 2019 10:14:09 GMT-0500 (Central Daylight Time),images/bird-parade.png,8,NA,NA,That ,,1,36GJS3V78VE1Z44RNQ7GLEXHC8GJGC,birds,Jennifer,3ZSANO2JCGVR7RPFP2FEJEKGWE2FS9,NA,yes,This one is also in the parade.,predicative,You say to your friend:,29,sparrow,,NA,NA,some_college,A2YO837C0O1E91,English,female,,NA,You see a parade of animals.,2,1566832449535,NA,images/sparrow.png,NA,1.00, is small.,small,NA,main1
426,NA,Mon Aug 26 2019 10:14:09 GMT-0500 (Central Daylight Time),images/bird-parade2.png,8,NA,NA,That ,,1,36GJS3V78VE1Z44RNQ7GLEXHC8GJGC,birds,Jennifer,3ZSANO2JCGVR7RPFP2FEJEKGWE2FS9,NA,yes,This one is also in the parade.,predicative,You say to your friend:,29,hummingbird,,NA,NA,some_college,A2YO837C0O1E91,English,female,,NA,You see a parade of animals.,3,1566832449535,NA,images/hummingbird.png,NA,1.00, is small.,small,NA,main1
426,bass,Mon Aug 26 2019 10:14:09 GMT-0500 (Central Daylight Time),NA,8,warmup/clownfish.jpg,tuna,This is a ,,1,36GJS3V78VE1Z44RNQ7GLEXHC8GJGC,fish,Jennifer,3ZSANO2JCGVR7RPFP2FEJEKGWE2FS9,clownfish,yes,Please label the pictures below.,NA,NA,29,NA,,warmup/tuna.jpg,fish,some_college,A2YO837C0O1E91,English,female,NA,fish,NA,1,1566832449535,1,NA,This is a ,1.00,These are both,NA,clown fish,warmup2
426,tuna,Mon Aug 26 2019 10:14:09 GMT-0500 (Central Daylight Time),NA,8,warmup/clownfish.jpg,tuna,This is a ,,1,36GJS3V78VE1Z44RNQ7GLEXHC8GJGC,fish,Jennifer,3ZSANO2JCGVR7RPFP2FEJEKGWE2FS9,clownfish,yes,Please label the pictures below.,NA,NA,29,NA,,warmup/tuna.jpg,fish,some_college,A2YO837C0O1E91,English,female,NA,fish,NA,1,1566832449535,2,NA,This is a ,1.00,These are both,NA,clownfish,warmup2
426,chiuaua,Mon Aug 26 2019 10:14:09 GMT-0500 (Central Daylight Time),NA,8,warmup/doberman.png,chihuahua,This is a ,,1,36GJS3V78VE1Z44RNQ7GLEXHC8GJGC,dogs,Jennifer,3ZSANO2JCGVR7RPFP2FEJEKGWE2FS9,doberman,yes,Please label the pictures below.,NA,NA,29,NA,,warmup/chihuahua.jpg,dogs,some_college,A2YO837C0O1E91,English,female,NA,dogs,NA,2,1566832449535,1,NA,This is a ,1.00,These are both,NA,rottweiler,warmup2
426,chihuahua,Mon Aug 26 2019 10:14:09 GMT-0500 (Central Daylight Time),NA,8,warmup/doberman.png,chihuahua,This is a ,,1,36GJS3V78VE1Z44RNQ7GLEXHC8GJGC,dogs,Jennifer,3ZSANO2JCGVR7RPFP2FEJEKGWE2FS9,doberman,yes,Please label the pictures below.,NA,NA,29,NA,,warmup/chihuahua.jpg,dogs,some_college,A2YO837C0O1E91,English,female,NA,dogs,NA,2,1566832449535,2,NA,This is a ,1.00,These are both,NA,doberman,warmup2
426,tree,Mon Aug 26 2019 10:14:09 GMT-0500 (Central Daylight Time),NA,8,warmup/bonsai.jpg,redwood|sequoia,This is a ,,1,36GJS3V78VE1Z44RNQ7GLEXHC8GJGC,trees,Jennifer,3ZSANO2JCGVR7RPFP2FEJEKGWE2FS9,bonsai,yes,Please label the pictures below.,NA,NA,29,NA,,warmup/sequoia.jpg,trees,some_college,A2YO837C0O1E91,English,female,NA,trees,NA,3,1566832449535,1,NA,This is a ,1.00,These are both,NA,bush,warmup2
426,redwood,Mon Aug 26 2019 10:14:09 GMT-0500 (Central Daylight Time),NA,8,warmup/bonsai.jpg,redwood|sequoia,This is a ,,1,36GJS3V78VE1Z44RNQ7GLEXHC8GJGC,trees,Jennifer,3ZSANO2JCGVR7RPFP2FEJEKGWE2FS9,bonsai,yes,Please label the pictures below.,NA,NA,29,NA,,warmup/sequoia.jpg,trees,some_college,A2YO837C0O1E91,English,female,NA,trees,NA,3,1566832449535,2,NA,This is a ,1.00,These are both,NA,bonsai,warmup2
426,NA,Mon Aug 26 2019 10:14:09 GMT-0500 (Central Daylight Time),images/tree-parade.png,8,NA,NA,That ,,1,36GJS3V78VE1Z44RNQ7GLEXHC8GJGC,trees,Jennifer,3ZSANO2JCGVR7RPFP2FEJEKGWE2FS9,NA,yes,This one is also in the landscape.,predicative,You say to your friend:,29,redwood,,NA,NA,some_college,A2YO837C0O1E91,English,female,,NA,You see the following items in a landscape.,1,1566832449535,NA,images/sequoia.png,NA,1.00, is big.,big,NA,main2
426,NA,Mon Aug 26 2019 10:14:09 GMT-0500 (Central Daylight Time),images/fish-parade2.png,8,NA,NA,That ,,1,36GJS3V78VE1Z44RNQ7GLEXHC8GJGC,fish,Jennifer,3ZSANO2JCGVR7RPFP2FEJEKGWE2FS9,NA,yes,This one is also in the parade.,predicative,You say to your friend:,29,tuna,,NA,NA,some_college,A2YO837C0O1E91,English,female,,NA,You see a parade of animals.,2,1566832449535,NA,images/tuna.png,NA,1.00, is big.,big,NA,main2
426,NA,Mon Aug 26 2019 10:14:09 GMT-0500 (Central Daylight Time),images/dog-parade.png,8,NA,NA,That ,,1,36GJS3V78VE1Z44RNQ7GLEXHC8GJGC,dogs,Jennifer,3ZSANO2JCGVR7RPFP2FEJEKGWE2FS9,NA,yes,This one is also in the parade.,predicative,You say to your friend:,29,chiuaua,,NA,NA,some_college,A2YO837C0O1E91,English,female,,NA,You see a parade of animals.,3,1566832449535,NA,images/chihuahua.png,NA,1.00, is small.,small,NA,main2
425,pug,Mon Aug 26 2019 08:12:52 GMT-0700 (Pacific Daylight Time),NA,8,warmup/great-dane.jpg,pug,This is a ,n/a,1,3MDKGGG61QBTGEBQN7CYBT71GW4T6P,dogs,patricia,3IUZPWIU1PVVUUY2AIGCWGF6ANEWK6,great dane,yes,Please label the pictures below.,NA,NA,38,NA,n/a,warmup/pug.jpg,dogs,graduated_college,A2581F7TDPAMBQ,English,female,NA,dogs,NA,1,1566832372418,1,NA,This is a ,1.00,These are both,NA,great dane,warmup1
425,large fish,Mon Aug 26 2019 08:12:52 GMT-0700 (Pacific Daylight Time),NA,8,warmup/clownfish.jpg,tuna,This is a ,n/a,1,3MDKGGG61QBTGEBQN7CYBT71GW4T6P,fish,patricia,3IUZPWIU1PVVUUY2AIGCWGF6ANEWK6,clownfish,yes,Please label the pictures below.,NA,NA,38,NA,n/a,warmup/tuna.jpg,fish,graduated_college,A2581F7TDPAMBQ,English,female,NA,fish,NA,2,1566832372418,1,NA,This is a ,1.00,These are both,NA,small fish,warmup1
425,tuna,Mon Aug 26 2019 08:12:52 GMT-0700 (Pacific Daylight Time),NA,8,warmup/clownfish.jpg,tuna,This is a ,n/a,1,3MDKGGG61QBTGEBQN7CYBT71GW4T6P,fish,patricia,3IUZPWIU1PVVUUY2AIGCWGF6ANEWK6,clownfish,yes,Please label the pictures below.,NA,NA,38,NA,n/a,warmup/tuna.jpg,fish,graduated_college,A2581F7TDPAMBQ,English,female,NA,fish,NA,2,1566832372418,2,NA,This is a ,1.00,These are both,NA,clownfish,warmup1
425,chihuaha,Mon Aug 26 2019 08:12:52 GMT-0700 (Pacific Daylight Time),NA,8,warmup/doberman.png,chihuahua,This is a ,n/a,1,3MDKGGG61QBTGEBQN7CYBT71GW4T6P,dogs,patricia,3IUZPWIU1PVVUUY2AIGCWGF6ANEWK6,doberman,yes,Please label the pictures below.,NA,NA,38,NA,n/a,warmup/chihuahua.jpg,dogs,graduated_college,A2581F7TDPAMBQ,English,female,NA,dogs,NA,3,1566832372418,1,NA,This is a ,1.00,These are both,NA,great dane,warmup1
425,chihuahua,Mon Aug 26 2019 08:12:52 GMT-0700 (Pacific Daylight Time),NA,8,warmup/doberman.png,chihuahua,This is a ,n/a,1,3MDKGGG61QBTGEBQN7CYBT71GW4T6P,dogs,patricia,3IUZPWIU1PVVUUY2AIGCWGF6ANEWK6,doberman,yes,Please label the pictures below.,NA,NA,38,NA,n/a,warmup/chihuahua.jpg,dogs,graduated_college,A2581F7TDPAMBQ,English,female,NA,dogs,NA,3,1566832372418,2,NA,This is a ,1.00,These are both,NA,doberman,warmup1
425,NA,Mon Aug 26 2019 08:12:52 GMT-0700 (Pacific Daylight Time),images/dog-parade.png,8,NA,NA,That ,n/a,1,3MDKGGG61QBTGEBQN7CYBT71GW4T6P,dogs,patricia,3IUZPWIU1PVVUUY2AIGCWGF6ANEWK6,NA,yes,This one is also in the parade.,predicative,You say to your friend:,38,dog,n/a,NA,NA,graduated_college,A2581F7TDPAMBQ,English,female,,NA,You see a parade of animals.,1,1566832372418,NA,images/chihuahua.png,NA,1.00, is small.,small,NA,main1
425,NA,Mon Aug 26 2019 08:12:52 GMT-0700 (Pacific Daylight Time),images/dog-parade2.png,8,NA,NA,That ,n/a,1,3MDKGGG61QBTGEBQN7CYBT71GW4T6P,dogs,patricia,3IUZPWIU1PVVUUY2AIGCWGF6ANEWK6,NA,yes,This one is also in the parade.,predicative,You say to your friend:,38,dog,n/a,NA,NA,graduated_college,A2581F7TDPAMBQ,English,female,,NA,You see a parade of animals.,2,1566832372418,NA,images/pug.png,NA,1.00, is small.,small,NA,main1
425,NA,Mon Aug 26 2019 08:12:52 GMT-0700 (Pacific Daylight Time),images/fish-parade2.png,8,NA,NA,That ,n/a,1,3MDKGGG61QBTGEBQN7CYBT71GW4T6P,fish,patricia,3IUZPWIU1PVVUUY2AIGCWGF6ANEWK6,NA,yes,This one is also in the parade.,predicative,You say to your friend:,38,fish,n/a,NA,NA,graduated_college,A2581F7TDPAMBQ,English,female,,NA,You see a parade of animals.,3,1566832372418,NA,images/tuna.png,NA,1.00, is big.,big,NA,main1
425,goose,Mon Aug 26 2019 08:12:52 GMT-0700 (Pacific Daylight Time),NA,8,warmup/sparrow.jpg,goose,This is a ,n/a,1,3MDKGGG61QBTGEBQN7CYBT71GW4T6P,birds,patricia,3IUZPWIU1PVVUUY2AIGCWGF6ANEWK6,sparrow,yes,Please label the pictures below.,NA,NA,38,NA,n/a,warmup/goose.png,birds,graduated_college,A2581F7TDPAMBQ,English,female,NA,birds,NA,1,1566832372418,1,NA,This is a ,1.00,These are both,NA,bird,warmup2
425,goose,Mon Aug 26 2019 08:12:52 GMT-0700 (Pacific Daylight Time),NA,8,warmup/sparrow.jpg,goose,This is a ,n/a,1,3MDKGGG61QBTGEBQN7CYBT71GW4T6P,birds,patricia,3IUZPWIU1PVVUUY2AIGCWGF6ANEWK6,sparrow,yes,Please label the pictures below.,NA,NA,38,NA,n/a,warmup/goose.png,birds,graduated_college,A2581F7TDPAMBQ,English,female,NA,birds,NA,1,1566832372418,2,NA,This is a ,1.00,These are both,NA,sparrow,warmup2
425,swan,Mon Aug 26 2019 08:12:52 GMT-0700 (Pacific Daylight Time),NA,8,warmup/canary.jpg,swan,This is a ,n/a,1,3MDKGGG61QBTGEBQN7CYBT71GW4T6P,birds,patricia,3IUZPWIU1PVVUUY2AIGCWGF6ANEWK6,canary,yes,Please label the pictures below.,NA,NA,38,NA,n/a,warmup/swan.jpg,birds,graduated_college,A2581F7TDPAMBQ,English,female,NA,birds,NA,2,1566832372418,1,NA,This is a ,1.00,These are both,NA,finch,warmup2
425,swan,Mon Aug 26 2019 08:12:52 GMT-0700 (Pacific Daylight Time),NA,8,warmup/canary.jpg,swan,This is a ,n/a,1,3MDKGGG61QBTGEBQN7CYBT71GW4T6P,birds,patricia,3IUZPWIU1PVVUUY2AIGCWGF6ANEWK6,canary,yes,Please label the pictures below.,NA,NA,38,NA,n/a,warmup/swan.jpg,birds,graduated_college,A2581F7TDPAMBQ,English,female,NA,birds,NA,2,1566832372418,2,NA,This is a ,1.00,These are both,NA,canary,warmup2
425,dandelion,Mon Aug 26 2019 08:12:52 GMT-0700 (Pacific Daylight Time),NA,8,warmup/sunflower.png,dandelion,This is a ,n/a,1,3MDKGGG61QBTGEBQN7CYBT71GW4T6P,flowers,patricia,3IUZPWIU1PVVUUY2AIGCWGF6ANEWK6,sunflower,yes,Please label the pictures below.,NA,NA,38,NA,n/a,warmup/dandelion.jpg,flowers,graduated_college,A2581F7TDPAMBQ,English,female,NA,flowers,NA,3,1566832372418,1,NA,This is a ,1.00,These are both,NA,sunflower,warmup2
425,NA,Mon Aug 26 2019 08:12:52 GMT-0700 (Pacific Daylight Time),images/flower-parade2.png,8,NA,NA,That ,n/a,1,3MDKGGG61QBTGEBQN7CYBT71GW4T6P,flowers,patricia,3IUZPWIU1PVVUUY2AIGCWGF6ANEWK6,NA,yes,This one is also in the collection.,predicative,You say to your friend:,38,flower,n/a,NA,NA,graduated_college,A2581F7TDPAMBQ,English,female,,NA,You see a collection of plants.,1,1566832372418,NA,images/sunflower.png,NA,1.00, is big.,big,NA,main2
425,NA,Mon Aug 26 2019 08:12:52 GMT-0700 (Pacific Daylight Time),images/bird-parade3.png,8,NA,NA,That ,n/a,1,3MDKGGG61QBTGEBQN7CYBT71GW4T6P,birds,patricia,3IUZPWIU1PVVUUY2AIGCWGF6ANEWK6,NA,yes,This one is also in the parade.,predicative,You say to your friend:,38,bird,n/a,NA,NA,graduated_college,A2581F7TDPAMBQ,English,female,,NA,You see a parade of animals.,2,1566832372418,NA,images/canary.png,NA,1.00, is small.,small,NA,main2
425,NA,Mon Aug 26 2019 08:12:52 GMT-0700 (Pacific Daylight Time),images/bird-parade.png,8,NA,NA,That ,n/a,1,3MDKGGG61QBTGEBQN7CYBT71GW4T6P,birds,patricia,3IUZPWIU1PVVUUY2AIGCWGF6ANEWK6,NA,yes,This one is also in the parade.,predicative,You say to your friend:,38,bird,n/a,NA,NA,graduated_college,A2581F7TDPAMBQ,English,female,,NA,You see a parade of animals.,3,1566832372418,NA,images/goose.png,NA,1.00, is big.,big,NA,main2
424,tree,Mon Aug 26 2019 10:11:13 GMT-0500 (Central Daylight Time),NA,8,warmup/bonsai.jpg,redwood|sequoia,This is a ,no,1,32CXT5U14GRVK593GRZ603PU5518UH,trees,patricia,3WJEQKOXA9QWHG9D13E29CMG9YB1AX,bonsai,yes,Please label the pictures below.,NA,NA,45,NA,none,warmup/sequoia.jpg,trees,graduated_college,A38DHLB88V8DL8,English,female,NA,trees,NA,1,1566832273210,1,NA,This is a ,1.50,These are both,NA,tree,warmup1
424,redwood,Mon Aug 26 2019 10:11:13 GMT-0500 (Central Daylight Time),NA,8,warmup/bonsai.jpg,redwood|sequoia,This is a ,no,1,32CXT5U14GRVK593GRZ603PU5518UH,trees,patricia,3WJEQKOXA9QWHG9D13E29CMG9YB1AX,bonsai,yes,Please label the pictures below.,NA,NA,45,NA,none,warmup/sequoia.jpg,trees,graduated_college,A38DHLB88V8DL8,English,female,NA,trees,NA,1,1566832273210,2,NA,This is a ,1.50,These are both,NA,bonsai,warmup1
424,chiwawa,Mon Aug 26 2019 10:11:13 GMT-0500 (Central Daylight Time),NA,8,warmup/doberman.png,chihuahua,This is a ,no,1,32CXT5U14GRVK593GRZ603PU5518UH,dogs,patricia,3WJEQKOXA9QWHG9D13E29CMG9YB1AX,doberman,yes,Please label the pictures below.,NA,NA,45,NA,none,warmup/chihuahua.jpg,dogs,graduated_college,A38DHLB88V8DL8,English,female,NA,dogs,NA,2,1566832273210,1,NA,This is a ,1.50,These are both,NA,doberman,warmup1
424,chihuahua,Mon Aug 26 2019 10:11:13 GMT-0500 (Central Daylight Time),NA,8,warmup/doberman.png,chihuahua,This is a ,no,1,32CXT5U14GRVK593GRZ603PU5518UH,dogs,patricia,3WJEQKOXA9QWHG9D13E29CMG9YB1AX,doberman,yes,Please label the pictures below.,NA,NA,45,NA,none,warmup/chihuahua.jpg,dogs,graduated_college,A38DHLB88V8DL8,English,female,NA,dogs,NA,2,1566832273210,2,NA,This is a ,1.50,These are both,NA,doberman,warmup1
424,swan,Mon Aug 26 2019 10:11:13 GMT-0500 (Central Daylight Time),NA,8,warmup/canary.jpg,swan,This is a ,no,1,32CXT5U14GRVK593GRZ603PU5518UH,birds,patricia,3WJEQKOXA9QWHG9D13E29CMG9YB1AX,canary,yes,Please label the pictures below.,NA,NA,45,NA,none,warmup/swan.jpg,birds,graduated_college,A38DHLB88V8DL8,English,female,NA,birds,NA,3,1566832273210,1,NA,This is a ,1.50,These are both,NA,finch,warmup1
424,swan,Mon Aug 26 2019 10:11:13 GMT-0500 (Central Daylight Time),NA,8,warmup/canary.jpg,swan,This is a ,no,1,32CXT5U14GRVK593GRZ603PU5518UH,birds,patricia,3WJEQKOXA9QWHG9D13E29CMG9YB1AX,canary,yes,Please label the pictures below.,NA,NA,45,NA,none,warmup/swan.jpg,birds,graduated_college,A38DHLB88V8DL8,English,female,NA,birds,NA,3,1566832273210,2,NA,This is a ,1.50,These are both,NA,canary,warmup1
424,NA,Mon Aug 26 2019 10:11:13 GMT-0500 (Central Daylight Time),images/dog-parade.png,8,NA,NA,That ,no,1,32CXT5U14GRVK593GRZ603PU5518UH,dogs,patricia,3WJEQKOXA9QWHG9D13E29CMG9YB1AX,NA,yes,This one is also in the parade.,predicative,You say to your friend:,45,doberman,none,NA,NA,graduated_college,A38DHLB88V8DL8,English,female,,NA,You see a parade of animals.,1,1566832273210,NA,images/doberman.png,NA,1.50, is big.,big,NA,main1
424,NA,Mon Aug 26 2019 10:11:13 GMT-0500 (Central Daylight Time),images/tree-parade.png,8,NA,NA,That ,no,1,32CXT5U14GRVK593GRZ603PU5518UH,trees,patricia,3WJEQKOXA9QWHG9D13E29CMG9YB1AX,NA,yes,This one is also in the landscape.,predicative,You say to your friend:,45,redwood,none,NA,NA,graduated_college,A38DHLB88V8DL8,English,female,,NA,You see the following items in a landscape.,2,1566832273210,NA,images/sequoia.png,NA,1.50, is big.,big,NA,main1
424,NA,Mon Aug 26 2019 10:11:13 GMT-0500 (Central Daylight Time),images/bird-parade3.png,8,NA,NA,That ,no,1,32CXT5U14GRVK593GRZ603PU5518UH,birds,patricia,3WJEQKOXA9QWHG9D13E29CMG9YB1AX,NA,yes,This one is also in the parade.,predicative,You say to your friend:,45,canary,none,NA,NA,graduated_college,A38DHLB88V8DL8,English,female,,NA,You see a parade of animals.,3,1566832273210,NA,images/canary.png,NA,1.50, is small.,small,NA,main1
424,trout,Mon Aug 26 2019 10:11:13 GMT-0500 (Central Daylight Time),NA,8,warmup/clownfish.jpg,tuna,This is a ,no,1,32CXT5U14GRVK593GRZ603PU5518UH,fish,patricia,3WJEQKOXA9QWHG9D13E29CMG9YB1AX,clownfish,yes,Please label the pictures below.,NA,NA,45,NA,none,warmup/tuna.jpg,fish,graduated_college,A38DHLB88V8DL8,English,female,NA,fish,NA,1,1566832273210,1,NA,This is a ,1.50,These are both,NA,clownfish,warmup2
424,tuna,Mon Aug 26 2019 10:11:13 GMT-0500 (Central Daylight Time),NA,8,warmup/clownfish.jpg,tuna,This is a ,no,1,32CXT5U14GRVK593GRZ603PU5518UH,fish,patricia,3WJEQKOXA9QWHG9D13E29CMG9YB1AX,clownfish,yes,Please label the pictures below.,NA,NA,45,NA,none,warmup/tuna.jpg,fish,graduated_college,A38DHLB88V8DL8,English,female,NA,fish,NA,1,1566832273210,2,NA,This is a ,1.50,These are both,NA,clownfish,warmup2
424,daisy,Mon Aug 26 2019 10:11:13 GMT-0500 (Central Daylight Time),NA,8,warmup/peony.png,daisy,This is a ,no,1,32CXT5U14GRVK593GRZ603PU5518UH,flowers,patricia,3WJEQKOXA9QWHG9D13E29CMG9YB1AX,peony,yes,Please label the pictures below.,NA,NA,45,NA,none,warmup/daisy.png,flowers,graduated_college,A38DHLB88V8DL8,English,female,NA,flowers,NA,2,1566832273210,1,NA,This is a ,1.50,These are both,NA,rose,warmup2
424,daisy,Mon Aug 26 2019 10:11:13 GMT-0500 (Central Daylight Time),NA,8,warmup/peony.png,daisy,This is a ,no,1,32CXT5U14GRVK593GRZ603PU5518UH,flowers,patricia,3WJEQKOXA9QWHG9D13E29CMG9YB1AX,peony,yes,Please label the pictures below.,NA,NA,45,NA,none,warmup/daisy.png,flowers,graduated_college,A38DHLB88V8DL8,English,female,NA,flowers,NA,2,1566832273210,2,NA,This is a ,1.50,These are both,NA,peony,warmup2
424,pug,Mon Aug 26 2019 10:11:13 GMT-0500 (Central Daylight Time),NA,8,warmup/great-dane.jpg,pug,This is a ,no,1,32CXT5U14GRVK593GRZ603PU5518UH,dogs,patricia,3WJEQKOXA9QWHG9D13E29CMG9YB1AX,great dane,yes,Please label the pictures below.,NA,NA,45,NA,none,warmup/pug.jpg,dog,graduated_college,A38DHLB88V8DL8,English,female,NA,dogs,NA,3,1566832273210,1,NA,This is a ,1.50,These are both,NA,dog,warmup2
424,pug,Mon Aug 26 2019 10:11:13 GMT-0500 (Central Daylight Time),NA,8,warmup/great-dane.jpg,pug,This is a ,no,1,32CXT5U14GRVK593GRZ603PU5518UH,dogs,patricia,3WJEQKOXA9QWHG9D13E29CMG9YB1AX,great dane,yes,Please label the pictures below.,NA,NA,45,NA,none,warmup/pug.jpg,dogs,graduated_college,A38DHLB88V8DL8,English,female,NA,dogs,NA,3,1566832273210,2,NA,This is a ,1.50,These are both,NA,great dane,warmup2
424,NA,Mon Aug 26 2019 10:11:13 GMT-0500 (Central Daylight Time),images/dog-parade2.png,8,NA,NA,That ,no,1,32CXT5U14GRVK593GRZ603PU5518UH,dogs,patricia,3WJEQKOXA9QWHG9D13E29CMG9YB1AX,NA,yes,This one is also in the parade.,predicative,You say to your friend:,45,pug,none,NA,NA,graduated_college,A38DHLB88V8DL8,English,female,,NA,You see a parade of animals.,1,1566832273210,NA,images/pug.png,NA,1.50, is small.,small,NA,main2
424,NA,Mon Aug 26 2019 10:11:13 GMT-0500 (Central Daylight Time),images/flower-parade.png,8,NA,NA,That ,no,1,32CXT5U14GRVK593GRZ603PU5518UH,flowers,patricia,3WJEQKOXA9QWHG9D13E29CMG9YB1AX,NA,yes,This one is also in the collection.,predicative,You say to your friend:,45,daisy,none,NA,NA,graduated_college,A38DHLB88V8DL8,English,female,,NA,You see a collection of plants.,2,1566832273210,NA,images/daisy.png,NA,1.50, is small.,small,NA,main2
424,NA,Mon Aug 26 2019 10:11:13 GMT-0500 (Central Daylight Time),images/fish-parade2.png,8,NA,NA,That ,no,1,32CXT5U14GRVK593GRZ603PU5518UH,fish,patricia,3WJEQKOXA9QWHG9D13E29CMG9YB1AX,NA,yes,This one is also in the parade.,predicative,You say to your friend:,45,tuna,none,NA,NA,graduated_college,A38DHLB88V8DL8,English,female,,NA,You see a parade of animals.,3,1566832273210,NA,images/tuna.png,NA,1.50, is big.,big,NA,main2
421,sparrow,Mon Aug 26 2019 08:07:41 GMT-0700 (Pacific Daylight Time),NA,8,warmup/eagle.jpg,hummingbird,This is a ,,2,36GJS3V78VE1Z44RNQ7GLEXHC8GJGC,birds,Mary,3EJJQNKU9STZK8G85339WPRXQRFHR4,eagle,yes,Please label the pictures below.,NA,NA,58,NA,,warmup/colibri.jpg,birds,some_college,A2VBIGD3I44K18,English,male,NA,birds,NA,1,1566832061407,1,NA,This is an ,1.5,These are both,NA,eagle,warmup1
421,hummingbird,Mon Aug 26 2019 08:07:41 GMT-0700 (Pacific Daylight Time),NA,8,warmup/eagle.jpg,hummingbird,This is a ,,2,36GJS3V78VE1Z44RNQ7GLEXHC8GJGC,birds,Mary,3EJJQNKU9STZK8G85339WPRXQRFHR4,eagle,yes,Please label the pictures below.,NA,NA,58,NA,,warmup/colibri.jpg,birds,some_college,A2VBIGD3I44K18,English,male,NA,birds,NA,1,1566832061407,2,NA,This is an ,1.5,These are both,NA,eagle,warmup1
421,flower,Mon Aug 26 2019 08:07:41 GMT-0700 (Pacific Daylight Time),NA,8,warmup/sunflower.png,dandelion,This is a ,,2,36GJS3V78VE1Z44RNQ7GLEXHC8GJGC,flowers,Mary,3EJJQNKU9STZK8G85339WPRXQRFHR4,sunflower,yes,Please label the pictures below.,NA,NA,58,NA,,warmup/dandelion.jpg,flowers,some_college,A2VBIGD3I44K18,English,male,NA,flowers,NA,2,1566832061407,1,NA,This is a ,1.5,These are both,NA,sunflower,warmup1
421,dandelion,Mon Aug 26 2019 08:07:41 GMT-0700 (Pacific Daylight Time),NA,8,warmup/sunflower.png,dandelion,This is a ,,2,36GJS3V78VE1Z44RNQ7GLEXHC8GJGC,flowers,Mary,3EJJQNKU9STZK8G85339WPRXQRFHR4,sunflower,yes,Please label the pictures below.,NA,NA,58,NA,,warmup/dandelion.jpg,flowers,some_college,A2VBIGD3I44K18,English,male,NA,flowers,NA,2,1566832061407,2,NA,This is a ,1.5,These are both,NA,sunflower,warmup1
421,squioa,Mon Aug 26 2019 08:07:41 GMT-0700 (Pacific Daylight Time),NA,8,warmup/bonsai.jpg,redwood|sequoia,This is a ,,2,36GJS3V78VE1Z44RNQ7GLEXHC8GJGC,trees,Mary,3EJJQNKU9STZK8G85339WPRXQRFHR4,bonsai,yes,Please label the pictures below.,NA,NA,58,NA,,warmup/sequoia.jpg,treets,some_college,A2VBIGD3I44K18,English,male,NA,trees,NA,3,1566832061407,1,NA,This is a ,1.5,These are both,NA,plant,warmup1
421,redwood,Mon Aug 26 2019 08:07:41 GMT-0700 (Pacific Daylight Time),NA,8,warmup/bonsai.jpg,redwood|sequoia,This is a ,,2,36GJS3V78VE1Z44RNQ7GLEXHC8GJGC,trees,Mary,3EJJQNKU9STZK8G85339WPRXQRFHR4,bonsai,yes,Please label the pictures below.,NA,NA,58,NA,,warmup/sequoia.jpg,trees,some_college,A2VBIGD3I44K18,English,male,NA,trees,NA,3,1566832061407,2,NA,This is a ,1.5,These are both,NA,bonsai,warmup1
421,NA,Mon Aug 26 2019 08:07:41 GMT-0700 (Pacific Daylight Time),images/flower-parade2.png,8,NA,NA,That ,,2,36GJS3V78VE1Z44RNQ7GLEXHC8GJGC,flowers,Mary,3EJJQNKU9STZK8G85339WPRXQRFHR4,NA,yes,This one is also in the collection.,predicative,You say to your friend:,58,flower,,NA,NA,some_college,A2VBIGD3I44K18,English,male,,NA,You see a collection of plants.,1,1566832061407,NA,images/dandelion.png,NA,1.5, is small.,small,NA,main1
421,NA,Mon Aug 26 2019 08:07:41 GMT-0700 (Pacific Daylight Time),images/bird-parade2.png,8,NA,NA,That ,,2,36GJS3V78VE1Z44RNQ7GLEXHC8GJGC,birds,Mary,3EJJQNKU9STZK8G85339WPRXQRFHR4,NA,yes,This one is also in the parade.,predicative,You say to your friend:,58,eagle,,NA,NA,some_college,A2VBIGD3I44K18,English,male,,NA,You see a parade of animals.,2,1566832061407,NA,images/eagle.png,NA,1.5, is big.,big,NA,main1
421,NA,Mon Aug 26 2019 08:07:41 GMT-0700 (Pacific Daylight Time),images/tree-parade.png,8,NA,NA,That ,,2,36GJS3V78VE1Z44RNQ7GLEXHC8GJGC,trees,Mary,3EJJQNKU9STZK8G85339WPRXQRFHR4,NA,yes,This one is also in the landscape.,predicative,You say to your friend:,58,redwood,,NA,NA,some_college,A2VBIGD3I44K18,English,male,,NA,You see the following items in a landscape.,3,1566832061407,NA,images/sequoia.png,NA,1.5, is big.,big,NA,main1
421,bulldog,Mon Aug 26 2019 08:07:41 GMT-0700 (Pacific Daylight Time),NA,8,warmup/great-dane.jpg,pug,This is a ,,2,36GJS3V78VE1Z44RNQ7GLEXHC8GJGC,dogs,Mary,3EJJQNKU9STZK8G85339WPRXQRFHR4,great dane,yes,Please label the pictures below.,NA,NA,58,NA,,warmup/pug.jpg,dogs,some_college,A2VBIGD3I44K18,English,male,NA,dogs,NA,1,1566832061407,1,NA,This is a ,1.5,These are both,NA,German shephard,warmup2
421,pug,Mon Aug 26 2019 08:07:41 GMT-0700 (Pacific Daylight Time),NA,8,warmup/great-dane.jpg,pug,This is a ,,2,36GJS3V78VE1Z44RNQ7GLEXHC8GJGC,dogs,Mary,3EJJQNKU9STZK8G85339WPRXQRFHR4,great dane,yes,Please label the pictures below.,NA,NA,58,NA,,warmup/pug.jpg,dogs,some_college,A2VBIGD3I44K18,English,male,NA,dogs,NA,1,1566832061407,2,NA,This is a ,1.5,These are both,NA,great dane,warmup2
421,fish,Mon Aug 26 2019 08:07:41 GMT-0700 (Pacific Daylight Time),NA,8,warmup/clownfish.jpg,tuna,This is a ,,2,36GJS3V78VE1Z44RNQ7GLEXHC8GJGC,fish,Mary,3EJJQNKU9STZK8G85339WPRXQRFHR4,clownfish,yes,Please label the pictures below.,NA,NA,58,NA,,warmup/tuna.jpg,fish,some_college,A2VBIGD3I44K18,English,male,NA,fish,NA,2,1566832061407,1,NA,This is a ,1.5,These are both,NA,clownfish,warmup2
421,tuna,Mon Aug 26 2019 08:07:41 GMT-0700 (Pacific Daylight Time),NA,8,warmup/clownfish.jpg,tuna,This is a ,,2,36GJS3V78VE1Z44RNQ7GLEXHC8GJGC,fish,Mary,3EJJQNKU9STZK8G85339WPRXQRFHR4,clownfish,yes,Please label the pictures below.,NA,NA,58,NA,,warmup/tuna.jpg,fish,some_college,A2VBIGD3I44K18,English,male,NA,fish,NA,2,1566832061407,2,NA,This is a ,1.5,These are both,NA,clownfish,warmup2
421,swan,Mon Aug 26 2019 08:07:41 GMT-0700 (Pacific Daylight Time),NA,8,warmup/canary.jpg,swan,This is a ,,2,36GJS3V78VE1Z44RNQ7GLEXHC8GJGC,birds,Mary,3EJJQNKU9STZK8G85339WPRXQRFHR4,canary,yes,Please label the pictures below.,NA,NA,58,NA,,warmup/swan.jpg,birds,some_college,A2VBIGD3I44K18,English,male,NA,birds,NA,3,1566832061407,1,NA,This is a ,1.5,These are both,NA,canary,warmup2
421,NA,Mon Aug 26 2019 08:07:41 GMT-0700 (Pacific Daylight Time),images/fish-parade2.png,8,NA,NA,That ,,2,36GJS3V78VE1Z44RNQ7GLEXHC8GJGC,fish,Mary,3EJJQNKU9STZK8G85339WPRXQRFHR4,NA,yes,This one is also in the parade.,predicative,You say to your friend:,58,clownfish,,NA,NA,some_college,A2VBIGD3I44K18,English,male,,NA,You see a parade of animals.,1,1566832061407,NA,images/clownfish.png,NA,1.5, is small.,small,NA,main2
421,NA,Mon Aug 26 2019 08:07:41 GMT-0700 (Pacific Daylight Time),images/dog-parade2.png,8,NA,NA,That ,,2,36GJS3V78VE1Z44RNQ7GLEXHC8GJGC,dogs,Mary,3EJJQNKU9STZK8G85339WPRXQRFHR4,NA,yes,This one is also in the parade.,predicative,You say to your friend:,58,pug,,NA,NA,some_college,A2VBIGD3I44K18,English,male,,NA,You see a parade of animals.,2,1566832061407,NA,images/pug.png,NA,1.5, is small.,small,NA,main2
421,NA,Mon Aug 26 2019 08:07:41 GMT-0700 (Pacific Daylight Time),images/bird-parade3.png,8,NA,NA,That ,,2,36GJS3V78VE1Z44RNQ7GLEXHC8GJGC,birds,Mary,3EJJQNKU9STZK8G85339WPRXQRFHR4,NA,yes,This one is also in the parade.,predicative,You say to your friend:,58,swan,,NA,NA,some_college,A2VBIGD3I44K18,English,male,,NA,You see a parade of animals.,3,1566832061407,NA,images/swan.png,NA,1.5, is big.,big,NA,main2
420,hummingbird,Mon Aug 26 2019 11:06:27 GMT-0400 (Eastern Daylight Time),NA,8,warmup/eagle.jpg,hummingbird,This is a ,No,1,3MDKGGG61QBTGEBQN7CYBT71GW4T6P,birds,barbara,35LDD5557BSZPI4O6GAPNIDFCLKKMN,eagle,,Please label the pictures below.,NA,NA,,NA,,warmup/colibri.jpg,birds,some_college,A2AWBDW9V1E9KT,English,,NA,birds,NA,1,1566831987683,1,NA,This is an ,1.00,These are both,NA,eagle,warmup1
420,swordfish,Mon Aug 26 2019 11:06:27 GMT-0400 (Eastern Daylight Time),NA,8,warmup/goldfish.png,swordfish,This is a ,No,1,3MDKGGG61QBTGEBQN7CYBT71GW4T6P,fish,barbara,35LDD5557BSZPI4O6GAPNIDFCLKKMN,goldfish,,Please label the pictures below.,NA,NA,,NA,,warmup/swordfish.jpg,fish,some_college,A2AWBDW9V1E9KT,English,,NA,fish,NA,2,1566831987683,1,NA,This is a ,1.00,These are both,NA,goldfish,warmup1
420,tree,Mon Aug 26 2019 11:06:27 GMT-0400 (Eastern Daylight Time),NA,8,warmup/bonsai.jpg,redwood|sequoia,This is a ,No,1,3MDKGGG61QBTGEBQN7CYBT71GW4T6P,trees,barbara,35LDD5557BSZPI4O6GAPNIDFCLKKMN,bonsai,,Please label the pictures below.,NA,NA,,NA,,warmup/sequoia.jpg,trees,some_college,A2AWBDW9V1E9KT,English,,NA,trees,NA,3,1566831987683,1,NA,This is a ,1.00,These are both,NA,bonsai,warmup1
420,tree,Mon Aug 26 2019 11:06:27 GMT-0400 (Eastern Daylight Time),NA,8,warmup/bonsai.jpg,redwood|sequoia,This is a ,No,1,3MDKGGG61QBTGEBQN7CYBT71GW4T6P,trees,barbara,35LDD5557BSZPI4O6GAPNIDFCLKKMN,bonsai,,Please label the pictures below.,NA,NA,,NA,,warmup/sequoia.jpg,trees,some_college,A2AWBDW9V1E9KT,English,,NA,trees,NA,3,1566831987683,2,NA,This is a ,1.00,These are both,NA,bush,warmup1
420,redwood,Mon Aug 26 2019 11:06:27 GMT-0400 (Eastern Daylight Time),NA,8,warmup/bonsai.jpg,redwood|sequoia,This is a ,No,1,3MDKGGG61QBTGEBQN7CYBT71GW4T6P,trees,barbara,35LDD5557BSZPI4O6GAPNIDFCLKKMN,bonsai,,Please label the pictures below.,NA,NA,,NA,,warmup/sequoia.jpg,trees,some_college,A2AWBDW9V1E9KT,English,,NA,trees,NA,3,1566831987683,3,NA,This is a ,1.00,These are both,NA,bonsai,warmup1
420,NA,Mon Aug 26 2019 11:06:27 GMT-0400 (Eastern Daylight Time),images/fish-parade.png,8,NA,NA,That ,No,1,3MDKGGG61QBTGEBQN7CYBT71GW4T6P,fish,barbara,35LDD5557BSZPI4O6GAPNIDFCLKKMN,NA,,This one is also in the parade.,predicative,You say to your friend:,,goldfish,,NA,NA,some_college,A2AWBDW9V1E9KT,English,,,NA,You see a parade of animals.,1,1566831987683,NA,images/goldfish.png,NA,1.00, is small.,small,NA,main1
420,NA,Mon Aug 26 2019 11:06:27 GMT-0400 (Eastern Daylight Time),images/tree-parade.png,8,NA,NA,That ,No,1,3MDKGGG61QBTGEBQN7CYBT71GW4T6P,trees,barbara,35LDD5557BSZPI4O6GAPNIDFCLKKMN,NA,,This one is also in the landscape.,predicative,You say to your friend:,,redwood,,NA,NA,some_college,A2AWBDW9V1E9KT,English,,,NA,You see the following items in a landscape.,2,1566831987683,NA,images/sequoia.png,NA,1.00, is big.,big,NA,main1
420,NA,Mon Aug 26 2019 11:06:27 GMT-0400 (Eastern Daylight Time),images/bird-parade2.png,8,NA,NA,That ,No,1,3MDKGGG61QBTGEBQN7CYBT71GW4T6P,birds,barbara,35LDD5557BSZPI4O6GAPNIDFCLKKMN,NA,,This one is also in the parade.,predicative,You say to your friend:,,hummingbird,,NA,NA,some_college,A2AWBDW9V1E9KT,English,,,NA,You see a parade of animals.,3,1566831987683,NA,images/hummingbird.png,NA,1.00, is small.,small,NA,main1
420,duck,Mon Aug 26 2019 11:06:27 GMT-0400 (Eastern Daylight Time),NA,8,warmup/sparrow.jpg,goose,This is a ,No,1,3MDKGGG61QBTGEBQN7CYBT71GW4T6P,birds,barbara,35LDD5557BSZPI4O6GAPNIDFCLKKMN,sparrow,,Please label the pictures below.,NA,NA,,NA,,warmup/goose.png,birds,some_college,A2AWBDW9V1E9KT,English,,NA,birds,NA,1,1566831987683,1,NA,This is a ,1.00,These are both,NA,sparrow,warmup2
420,goose,Mon Aug 26 2019 11:06:27 GMT-0400 (Eastern Daylight Time),NA,8,warmup/sparrow.jpg,goose,This is a ,No,1,3MDKGGG61QBTGEBQN7CYBT71GW4T6P,birds,barbara,35LDD5557BSZPI4O6GAPNIDFCLKKMN,sparrow,,Please label the pictures below.,NA,NA,,NA,,warmup/goose.png,birds,some_college,A2AWBDW9V1E9KT,English,,NA,birds,NA,1,1566831987683,2,NA,This is a ,1.00,These are both,NA,sparrow,warmup2
420,chiuaua,Mon Aug 26 2019 11:06:27 GMT-0400 (Eastern Daylight Time),NA,8,warmup/doberman.png,chihuahua,This is a ,No,1,3MDKGGG61QBTGEBQN7CYBT71GW4T6P,dogs,barbara,35LDD5557BSZPI4O6GAPNIDFCLKKMN,doberman,,Please label the pictures below.,NA,NA,,NA,,warmup/chihuahua.jpg,dogs,some_college,A2AWBDW9V1E9KT,English,,NA,dogs,NA,2,1566831987683,1,NA,This is a ,1.00,These are both,NA,doberman,warmup2
420,chihuahua,Mon Aug 26 2019 11:06:27 GMT-0400 (Eastern Daylight Time),NA,8,warmup/doberman.png,chihuahua,This is a ,No,1,3MDKGGG61QBTGEBQN7CYBT71GW4T6P,dogs,barbara,35LDD5557BSZPI4O6GAPNIDFCLKKMN,doberman,,Please label the pictures below.,NA,NA,,NA,,warmup/chihuahua.jpg,dogs,some_college,A2AWBDW9V1E9KT,English,,NA,dogs,NA,2,1566831987683,2,NA,This is a ,1.00,These are both,NA,doberman,warmup2
420,sinflower,Mon Aug 26 2019 11:06:27 GMT-0400 (Eastern Daylight Time),NA,8,warmup/peony.png,daisy,This is a ,No,1,3MDKGGG61QBTGEBQN7CYBT71GW4T6P,flowers,barbara,35LDD5557BSZPI4O6GAPNIDFCLKKMN,peony,,Please label the pictures below.,NA,NA,,NA,,warmup/daisy.png,flowers,some_college,A2AWBDW9V1E9KT,English,,NA,flowers,NA,3,1566831987683,1,NA,This is a ,1.00,These are both,NA,rose,warmup2
420,daisy,Mon Aug 26 2019 11:06:27 GMT-0400 (Eastern Daylight Time),NA,8,warmup/peony.png,daisy,This is a ,No,1,3MDKGGG61QBTGEBQN7CYBT71GW4T6P,flowers,barbara,35LDD5557BSZPI4O6GAPNIDFCLKKMN,peony,,Please label the pictures below.,NA,NA,,NA,,warmup/daisy.png,flowers,some_college,A2AWBDW9V1E9KT,English,,NA,flowers,NA,3,1566831987683,2,NA,This is a ,1.00,These are both,NA,peony,warmup2
420,NA,Mon Aug 26 2019 11:06:27 GMT-0400 (Eastern Daylight Time),images/bird-parade.png,8,NA,NA,That ,No,1,3MDKGGG61QBTGEBQN7CYBT71GW4T6P,birds,barbara,35LDD5557BSZPI4O6GAPNIDFCLKKMN,NA,,This one is also in the parade.,predicative,You say to your friend:,,goose,,NA,NA,some_college,A2AWBDW9V1E9KT,English,,,NA,You see a parade of animals.,1,1566831987683,NA,images/goose.png,NA,1.00, is big.,big,NA,main2
420,NA,Mon Aug 26 2019 11:06:27 GMT-0400 (Eastern Daylight Time),images/dog-parade.png,8,NA,NA,That ,No,1,3MDKGGG61QBTGEBQN7CYBT71GW4T6P,dogs,barbara,35LDD5557BSZPI4O6GAPNIDFCLKKMN,NA,,This one is also in the parade.,predicative,You say to your friend:,,chihuahua,,NA,NA,some_college,A2AWBDW9V1E9KT,English,,,NA,You see a parade of animals.,2,1566831987683,NA,images/chihuahua.png,NA,1.00, is small.,small,NA,main2
420,NA,Mon Aug 26 2019 11:06:27 GMT-0400 (Eastern Daylight Time),images/flower-parade.png,8,NA,NA,That ,No,1,3MDKGGG61QBTGEBQN7CYBT71GW4T6P,flowers,barbara,35LDD5557BSZPI4O6GAPNIDFCLKKMN,NA,,This one is also in the collection.,predicative,You say to your friend:,,peony,,NA,NA,some_college,A2AWBDW9V1E9KT,English,,,NA,You see a collection of plants.,3,1566831987683,NA,images/peony.png,NA,1.00, is big.,big,NA,main2
415,Fish,Mon Aug 26 2019 09:03:15 GMT-0600 (Mountain Daylight Time),NA,8,warmup/clownfish.jpg,tuna,This is a ,,2,36GJS3V78VE1Z44RNQ7GLEXHC8GJGC,fish,Linda,3YZ8UPK3VUA0JSX9N5KDQ9H1KYEUCC,clownfish,yes,Please label the pictures below.,NA,NA,48,NA,,warmup/tuna.jpg,Fish,graduated_college,A12ABRH7TAD6ZJ,English,male,NA,fish,NA,1,1566831795367,1,NA,This is a ,2,These are both,NA,Nemo,warmup1
415,tuna,Mon Aug 26 2019 09:03:15 GMT-0600 (Mountain Daylight Time),NA,8,warmup/clownfish.jpg,tuna,This is a ,,2,36GJS3V78VE1Z44RNQ7GLEXHC8GJGC,fish,Linda,3YZ8UPK3VUA0JSX9N5KDQ9H1KYEUCC,clownfish,yes,Please label the pictures below.,NA,NA,48,NA,,warmup/tuna.jpg,Fish,graduated_college,A12ABRH7TAD6ZJ,English,male,NA,fish,NA,1,1566831795367,2,NA,This is a ,2,These are both,NA,clownfish,warmup1
415,sting,Mon Aug 26 2019 09:03:15 GMT-0600 (Mountain Daylight Time),NA,8,warmup/goldfish.png,swordfish,This is a ,,2,36GJS3V78VE1Z44RNQ7GLEXHC8GJGC,fish,Linda,3YZ8UPK3VUA0JSX9N5KDQ9H1KYEUCC,goldfish,yes,Please label the pictures below.,NA,NA,48,NA,,warmup/swordfish.jpg,fish,graduated_college,A12ABRH7TAD6ZJ,English,male,NA,fish,NA,2,1566831795367,1,NA,This is a ,2,These are both,NA,golden,warmup1
415,swordfish,Mon Aug 26 2019 09:03:15 GMT-0600 (Mountain Daylight Time),NA,8,warmup/goldfish.png,swordfish,This is a ,,2,36GJS3V78VE1Z44RNQ7GLEXHC8GJGC,fish,Linda,3YZ8UPK3VUA0JSX9N5KDQ9H1KYEUCC,goldfish,yes,Please label the pictures below.,NA,NA,48,NA,,warmup/swordfish.jpg,fish,graduated_college,A12ABRH7TAD6ZJ,English,male,NA,fish,NA,2,1566831795367,2,NA,This is a ,2,These are both,NA,goldfish,warmup1
415,tree,Mon Aug 26 2019 09:03:15 GMT-0600 (Mountain Daylight Time),NA,8,warmup/bonsai.jpg,redwood|sequoia,This is a ,,2,36GJS3V78VE1Z44RNQ7GLEXHC8GJGC,trees,Linda,3YZ8UPK3VUA0JSX9N5KDQ9H1KYEUCC,bonsai,yes,Please label the pictures below.,NA,NA,48,NA,,warmup/sequoia.jpg,tree,graduated_college,A12ABRH7TAD6ZJ,English,male,NA,trees,NA,3,1566831795367,1,NA,This is a ,2,These are both,NA,plant,warmup1
415,redwood,Mon Aug 26 2019 09:03:15 GMT-0600 (Mountain Daylight Time),NA,8,warmup/bonsai.jpg,redwood|sequoia,This is a ,,2,36GJS3V78VE1Z44RNQ7GLEXHC8GJGC,trees,Linda,3YZ8UPK3VUA0JSX9N5KDQ9H1KYEUCC,bonsai,yes,Please label the pictures below.,NA,NA,48,NA,,warmup/sequoia.jpg,trees,graduated_college,A12ABRH7TAD6ZJ,English,male,NA,trees,NA,3,1566831795367,2,NA,This is a ,2,These are both,NA,plantbonsai,warmup1
415,redwood,Mon Aug 26 2019 09:03:15 GMT-0600 (Mountain Daylight Time),NA,8,warmup/bonsai.jpg,redwood|sequoia,This is a ,,2,36GJS3V78VE1Z44RNQ7GLEXHC8GJGC,trees,Linda,3YZ8UPK3VUA0JSX9N5KDQ9H1KYEUCC,bonsai,yes,Please label the pictures below.,NA,NA,48,NA,,warmup/sequoia.jpg,trees,graduated_college,A12ABRH7TAD6ZJ,English,male,NA,trees,NA,3,1566831795367,3,NA,This is a ,2,These are both,NA,plantbonsai,warmup1
415,redwood,Mon Aug 26 2019 09:03:15 GMT-0600 (Mountain Daylight Time),NA,8,warmup/bonsai.jpg,redwood|sequoia,This is a ,,2,36GJS3V78VE1Z44RNQ7GLEXHC8GJGC,trees,Linda,3YZ8UPK3VUA0JSX9N5KDQ9H1KYEUCC,bonsai,yes,Please label the pictures below.,NA,NA,48,NA,,warmup/sequoia.jpg,trees,graduated_college,A12ABRH7TAD6ZJ,English,male,NA,trees,NA,3,1566831795367,4,NA,This is a ,2,These are both,NA,plantbonsai,warmup1
415,redwood,Mon Aug 26 2019 09:03:15 GMT-0600 (Mountain Daylight Time),NA,8,warmup/bonsai.jpg,redwood|sequoia,This is a ,,2,36GJS3V78VE1Z44RNQ7GLEXHC8GJGC,trees,Linda,3YZ8UPK3VUA0JSX9N5KDQ9H1KYEUCC,bonsai,yes,Please label the pictures below.,NA,NA,48,NA,,warmup/sequoia.jpg,trees,graduated_college,A12ABRH7TAD6ZJ,English,male,NA,trees,NA,3,1566831795367,5,NA,This is a ,2,These are both,NA,bonsai,warmup1
415,NA,Mon Aug 26 2019 09:03:15 GMT-0600 (Mountain Daylight Time),images/fish-parade.png,8,NA,NA,That ,,2,36GJS3V78VE1Z44RNQ7GLEXHC8GJGC,fish,Linda,3YZ8UPK3VUA0JSX9N5KDQ9H1KYEUCC,NA,yes,This one is also in the parade.,predicative,You say to your friend:,48,goldfish,,NA,NA,graduated_college,A12ABRH7TAD6ZJ,English,male,,NA,You see a parade of animals.,1,1566831795367,NA,images/goldfish.png,NA,2, is small.,small,NA,main1
415,NA,Mon Aug 26 2019 09:03:15 GMT-0600 (Mountain Daylight Time),images/fish-parade2.png,8,NA,NA,That ,,2,36GJS3V78VE1Z44RNQ7GLEXHC8GJGC,fish,Linda,3YZ8UPK3VUA0JSX9N5KDQ9H1KYEUCC,NA,yes,This one is also in the parade.,predicative,You say to your friend:,48,stingfish,,NA,NA,graduated_college,A12ABRH7TAD6ZJ,English,male,,NA,You see a parade of animals.,2,1566831795367,NA,images/tuna.png,NA,2, is big.,big,NA,main1
415,NA,Mon Aug 26 2019 09:03:15 GMT-0600 (Mountain Daylight Time),images/tree-parade.png,8,NA,NA,That ,,2,36GJS3V78VE1Z44RNQ7GLEXHC8GJGC,trees,Linda,3YZ8UPK3VUA0JSX9N5KDQ9H1KYEUCC,NA,yes,This one is also in the landscape.,predicative,You say to your friend:,48,squeioa,,NA,NA,graduated_college,A12ABRH7TAD6ZJ,English,male,,NA,You see the following items in a landscape.,3,1566831795367,NA,images/sequoia.png,NA,2, is big.,big,NA,main1
415,lilly,Mon Aug 26 2019 09:03:15 GMT-0600 (Mountain Daylight Time),NA,8,warmup/peony.png,daisy,This is a ,,2,36GJS3V78VE1Z44RNQ7GLEXHC8GJGC,flowers,Linda,3YZ8UPK3VUA0JSX9N5KDQ9H1KYEUCC,peony,yes,Please label the pictures below.,NA,NA,48,NA,,warmup/daisy.png,flowers,graduated_college,A12ABRH7TAD6ZJ,English,male,NA,flowers,NA,1,1566831795367,1,NA,This is a ,2,These are both,NA,rose,warmup2
415,daisy,Mon Aug 26 2019 09:03:15 GMT-0600 (Mountain Daylight Time),NA,8,warmup/peony.png,daisy,This is a ,,2,36GJS3V78VE1Z44RNQ7GLEXHC8GJGC,flowers,Linda,3YZ8UPK3VUA0JSX9N5KDQ9H1KYEUCC,peony,yes,Please label the pictures below.,NA,NA,48,NA,,warmup/daisy.png,flowers,graduated_college,A12ABRH7TAD6ZJ,English,male,NA,flowers,NA,1,1566831795367,2,NA,This is a ,2,These are both,NA,peony,warmup2
415,duck,Mon Aug 26 2019 09:03:15 GMT-0600 (Mountain Daylight Time),NA,8,warmup/canary.jpg,swan,This is a ,,2,36GJS3V78VE1Z44RNQ7GLEXHC8GJGC,birds,Linda,3YZ8UPK3VUA0JSX9N5KDQ9H1KYEUCC,canary,yes,Please label the pictures below.,NA,NA,48,NA,,warmup/swan.jpg,birds,graduated_college,A12ABRH7TAD6ZJ,English,male,NA,birds,NA,2,1566831795367,1,NA,This is a ,2,These are both,NA,sparrow,warmup2
415,swan,Mon Aug 26 2019 09:03:15 GMT-0600 (Mountain Daylight Time),NA,8,warmup/canary.jpg,swan,This is a ,,2,36GJS3V78VE1Z44RNQ7GLEXHC8GJGC,birds,Linda,3YZ8UPK3VUA0JSX9N5KDQ9H1KYEUCC,canary,yes,Please label the pictures below.,NA,NA,48,NA,,warmup/swan.jpg,birds,graduated_college,A12ABRH7TAD6ZJ,English,male,NA,birds,NA,2,1566831795367,2,NA,This is a ,2,These are both,NA,canary,warmup2
415,chicua,Mon Aug 26 2019 09:03:15 GMT-0600 (Mountain Daylight Time),NA,8,warmup/doberman.png,chihuahua,This is a ,,2,36GJS3V78VE1Z44RNQ7GLEXHC8GJGC,dogs,Linda,3YZ8UPK3VUA0JSX9N5KDQ9H1KYEUCC,doberman,yes,Please label the pictures below.,NA,NA,48,NA,,warmup/chihuahua.jpg,dogs,graduated_college,A12ABRH7TAD6ZJ,English,male,NA,dogs,NA,3,1566831795367,1,NA,This is a ,2,These are both,NA,German Shephard,warmup2
415,chihuahua,Mon Aug 26 2019 09:03:15 GMT-0600 (Mountain Daylight Time),NA,8,warmup/doberman.png,chihuahua,This is a ,,2,36GJS3V78VE1Z44RNQ7GLEXHC8GJGC,dogs,Linda,3YZ8UPK3VUA0JSX9N5KDQ9H1KYEUCC,doberman,yes,Please label the pictures below.,NA,NA,48,NA,,warmup/chihuahua.jpg,dogs,graduated_college,A12ABRH7TAD6ZJ,English,male,NA,dogs,NA,3,1566831795367,2,NA,This is a ,2,These are both,NA,doberman,warmup2
415,NA,Mon Aug 26 2019 09:03:15 GMT-0600 (Mountain Daylight Time),images/bird-parade3.png,8,NA,NA,That ,,2,36GJS3V78VE1Z44RNQ7GLEXHC8GJGC,birds,Linda,3YZ8UPK3VUA0JSX9N5KDQ9H1KYEUCC,NA,yes,This one is also in the parade.,predicative,You say to your friend:,48,canary,,NA,NA,graduated_college,A12ABRH7TAD6ZJ,English,male,,NA,You see a parade of animals.,1,1566831795367,NA,images/canary.png,NA,2, is small.,small,NA,main2
415,NA,Mon Aug 26 2019 09:03:15 GMT-0600 (Mountain Daylight Time),images/dog-parade.png,8,NA,NA,That ,,2,36GJS3V78VE1Z44RNQ7GLEXHC8GJGC,dogs,Linda,3YZ8UPK3VUA0JSX9N5KDQ9H1KYEUCC,NA,yes,This one is also in the parade.,predicative,You say to your friend:,48,chihuahua,,NA,NA,graduated_college,A12ABRH7TAD6ZJ,English,male,,NA,You see a parade of animals.,2,1566831795367,NA,images/chihuahua.png,NA,2, is small.,small,NA,main2
415,NA,Mon Aug 26 2019 09:03:15 GMT-0600 (Mountain Daylight Time),images/flower-parade.png,8,NA,NA,That ,,2,36GJS3V78VE1Z44RNQ7GLEXHC8GJGC,flowers,Linda,3YZ8UPK3VUA0JSX9N5KDQ9H1KYEUCC,NA,yes,This one is also in the collection.,predicative,You say to your friend:,48,flower,,NA,NA,graduated_college,A12ABRH7TAD6ZJ,English,male,,NA,You see a collection of plants.,3,1566831795367,NA,images/peony.png,NA,2, is big.,big,NA,main2
414,flower,Mon Aug 26 2019 09:59:10 GMT-0500 (Central Daylight Time),NA,8,warmup/peony.png,daisy,This is a ,"No, I had no problems or glitches.",2,3MDKGGG61QBTGEBQN7CYBT71GW4T6P,flowers,linda,3I2PTA7R3UIQAX2GY9H64RXKMMOQKN,peony,yes,Please label the pictures below.,NA,NA,38,NA,,warmup/daisy.png,flowers,graduated_college,A5DZDONM2Y082,English,female,NA,flowers,NA,1,1566831550968,1,NA,This is a ,1,These are both,NA,flower,warmup1
414,daisy,Mon Aug 26 2019 09:59:10 GMT-0500 (Central Daylight Time),NA,8,warmup/peony.png,daisy,This is a ,"No, I had no problems or glitches.",2,3MDKGGG61QBTGEBQN7CYBT71GW4T6P,flowers,linda,3I2PTA7R3UIQAX2GY9H64RXKMMOQKN,peony,yes,Please label the pictures below.,NA,NA,38,NA,,warmup/daisy.png,flowers,graduated_college,A5DZDONM2Y082,English,female,NA,flowers,NA,1,1566831550968,2,NA,This is a ,1,These are both,NA,peony,warmup1
414,duck,Mon Aug 26 2019 09:59:10 GMT-0500 (Central Daylight Time),NA,8,warmup/sparrow.jpg,goose,This is a ,"No, I had no problems or glitches.",2,3MDKGGG61QBTGEBQN7CYBT71GW4T6P,birds,linda,3I2PTA7R3UIQAX2GY9H64RXKMMOQKN,sparrow,yes,Please label the pictures below.,NA,NA,38,NA,,warmup/goose.png,birds,graduated_college,A5DZDONM2Y082,English,female,NA,birds,NA,2,1566831550968,1,NA,This is a ,1,These are both,NA,sparrow,warmup1
414,goose,Mon Aug 26 2019 09:59:10 GMT-0500 (Central Daylight Time),NA,8,warmup/sparrow.jpg,goose,This is a ,"No, I had no problems or glitches.",2,3MDKGGG61QBTGEBQN7CYBT71GW4T6P,birds,linda,3I2PTA7R3UIQAX2GY9H64RXKMMOQKN,sparrow,yes,Please label the pictures below.,NA,NA,38,NA,,warmup/goose.png,birds,graduated_college,A5DZDONM2Y082,English,female,NA,birds,NA,2,1566831550968,2,NA,This is a ,1,These are both,NA,sparrow,warmup1
414,swan,Mon Aug 26 2019 09:59:10 GMT-0500 (Central Daylight Time),NA,8,warmup/canary.jpg,swan,This is a ,"No, I had no problems or glitches.",2,3MDKGGG61QBTGEBQN7CYBT71GW4T6P,birds,linda,3I2PTA7R3UIQAX2GY9H64RXKMMOQKN,canary,yes,Please label the pictures below.,NA,NA,38,NA,,warmup/swan.jpg,birds,graduated_college,A5DZDONM2Y082,English,female,NA,birds,NA,3,1566831550968,1,NA,This is a ,1,These are both,NA,canary,warmup1
414,NA,Mon Aug 26 2019 09:59:10 GMT-0500 (Central Daylight Time),images/flower-parade.png,8,NA,NA,That ,"No, I had no problems or glitches.",2,3MDKGGG61QBTGEBQN7CYBT71GW4T6P,flowers,linda,3I2PTA7R3UIQAX2GY9H64RXKMMOQKN,NA,yes,This one is also in the collection.,predicative,You say to your friend:,38,peony,,NA,NA,graduated_college,A5DZDONM2Y082,English,female,,NA,You see a collection of plants.,1,1566831550968,NA,images/peony.png,NA,1, is big.,big,NA,main1
414,NA,Mon Aug 26 2019 09:59:10 GMT-0500 (Central Daylight Time),images/bird-parade.png,8,NA,NA,That ,"No, I had no problems or glitches.",2,3MDKGGG61QBTGEBQN7CYBT71GW4T6P,birds,linda,3I2PTA7R3UIQAX2GY9H64RXKMMOQKN,NA,yes,This one is also in the parade.,predicative,You say to your friend:,38,goose,,NA,NA,graduated_college,A5DZDONM2Y082,English,female,,NA,You see a parade of animals.,2,1566831550968,NA,images/goose.png,NA,1, is big.,big,NA,main1
414,NA,Mon Aug 26 2019 09:59:10 GMT-0500 (Central Daylight Time),images/bird-parade3.png,8,NA,NA,That ,"No, I had no problems or glitches.",2,3MDKGGG61QBTGEBQN7CYBT71GW4T6P,birds,linda,3I2PTA7R3UIQAX2GY9H64RXKMMOQKN,NA,yes,This one is also in the parade.,predicative,You say to your friend:,38,canary,,NA,NA,graduated_college,A5DZDONM2Y082,English,female,,NA,You see a parade of animals.,3,1566831550968,NA,images/canary.png,NA,1, is small.,small,NA,main1
414,shark,Mon Aug 26 2019 09:59:10 GMT-0500 (Central Daylight Time),NA,8,warmup/goldfish.png,swordfish,This is a ,"No, I had no problems or glitches.",2,3MDKGGG61QBTGEBQN7CYBT71GW4T6P,fish,linda,3I2PTA7R3UIQAX2GY9H64RXKMMOQKN,goldfish,yes,Please label the pictures below.,NA,NA,38,NA,,warmup/swordfish.jpg,fish,graduated_college,A5DZDONM2Y082,English,female,NA,fish,NA,1,1566831550968,1,NA,This is a ,1,These are both,NA,goldfish,warmup2
