submission_id,response1,context_picture,experiment_id,picture2,correct1,question1,problems,enjoyment,correct2,understand,text,sentence,age,response,comments,picture1,response3,education,languages,sex,RT,correct3,context,trial_number,startTime,picture,fairprice,question2,response2,trial_name
60,monkey,NA,4,images/gorilla.jpg,spider monkey,This is a,No,1,gorilla,yes,Please label the pictures below.,NA,41,NA,"There are a few issues with this experiment. First, often times I would come up with a label, only to discover that you have a very narrow definition of what that label should be. For the general 'monkey' label, I put 'primates', which should have been an acceptable response, but it wasn't, based on your narrow definitions. I changed the label to what you wanted, but it made me wonder what you could possibly be testing. Also, I feel that some of the images stretch what would be commonly known - is anyone really supposed to know that one of your dog images was a Great Dane? Or that the tree was a Sequoia, not an Oak? Perhaps it would help if the images were photos instead of illustrations, but probably not.",images/spidermonkey.jpg,primates,higher_degree,English,male,NA,monkeys|apes,NA,1,1564090275591,NA,1.5,These are both,gorilla,warmup
60,monkey,NA,4,images/gorilla.jpg,spider monkey,This is a,No,1,gorilla,yes,Please label the pictures below.,NA,41,NA,"There are a few issues with this experiment. First, often times I would come up with a label, only to discover that you have a very narrow definition of what that label should be. For the general 'monkey' label, I put 'primates', which should have been an acceptable response, but it wasn't, based on your narrow definitions. I changed the label to what you wanted, but it made me wonder what you could possibly be testing. Also, I feel that some of the images stretch what would be commonly known - is anyone really supposed to know that one of your dog images was a Great Dane? Or that the tree was a Sequoia, not an Oak? Perhaps it would help if the images were photos instead of illustrations, but probably not.",images/spidermonkey.jpg,apes,higher_degree,English,male,NA,monkeys|apes,NA,1,1564090275591,NA,1.5,These are both,ape,warmup
60,monkey,NA,4,images/gorilla.jpg,spider monkey,This is a,No,1,gorilla,yes,Please label the pictures below.,NA,41,NA,"There are a few issues with this experiment. First, often times I would come up with a label, only to discover that you have a very narrow definition of what that label should be. For the general 'monkey' label, I put 'primates', which should have been an acceptable response, but it wasn't, based on your narrow definitions. I changed the label to what you wanted, but it made me wonder what you could possibly be testing. Also, I feel that some of the images stretch what would be commonly known - is anyone really supposed to know that one of your dog images was a Great Dane? Or that the tree was a Sequoia, not an Oak? Perhaps it would help if the images were photos instead of illustrations, but probably not.",images/spidermonkey.jpg,apes,higher_degree,English,male,NA,monkeys|apes,NA,1,1564090275591,NA,1.5,These are both,gorilla,warmup
60,monkey,NA,4,images/gorilla.jpg,spider monkey,This is a,No,1,gorilla,yes,Please label the pictures below.,NA,41,NA,"There are a few issues with this experiment. First, often times I would come up with a label, only to discover that you have a very narrow definition of what that label should be. For the general 'monkey' label, I put 'primates', which should have been an acceptable response, but it wasn't, based on your narrow definitions. I changed the label to what you wanted, but it made me wonder what you could possibly be testing. Also, I feel that some of the images stretch what would be commonly known - is anyone really supposed to know that one of your dog images was a Great Dane? Or that the tree was a Sequoia, not an Oak? Perhaps it would help if the images were photos instead of illustrations, but probably not.",images/spidermonkey.jpg,apes,higher_degree,English,male,NA,monkeys|apes,NA,1,1564090275591,NA,1.5,These are both,gorilla,warmup
60,monkey,NA,4,images/gorilla.jpg,spider monkey,This is a,No,1,gorilla,yes,Please label the pictures below.,NA,41,NA,"There are a few issues with this experiment. First, often times I would come up with a label, only to discover that you have a very narrow definition of what that label should be. For the general 'monkey' label, I put 'primates', which should have been an acceptable response, but it wasn't, based on your narrow definitions. I changed the label to what you wanted, but it made me wonder what you could possibly be testing. Also, I feel that some of the images stretch what would be commonly known - is anyone really supposed to know that one of your dog images was a Great Dane? Or that the tree was a Sequoia, not an Oak? Perhaps it would help if the images were photos instead of illustrations, but probably not.",images/spidermonkey.jpg,apes,higher_degree,English,male,NA,monkeys|apes,NA,1,1564090275591,NA,1.5,These are both,gorilla,warmup
60,monkey,NA,4,images/gorilla.jpg,spider monkey,This is a,No,1,gorilla,yes,Please label the pictures below.,NA,41,NA,"There are a few issues with this experiment. First, often times I would come up with a label, only to discover that you have a very narrow definition of what that label should be. For the general 'monkey' label, I put 'primates', which should have been an acceptable response, but it wasn't, based on your narrow definitions. I changed the label to what you wanted, but it made me wonder what you could possibly be testing. Also, I feel that some of the images stretch what would be commonly known - is anyone really supposed to know that one of your dog images was a Great Dane? Or that the tree was a Sequoia, not an Oak? Perhaps it would help if the images were photos instead of illustrations, but probably not.",images/spidermonkey.jpg,primates,higher_degree,English,male,NA,monkeys|apes,NA,1,1564090275591,NA,1.5,These are both,gorilla,warmup
60,monkey,NA,4,images/gorilla.jpg,spider monkey,This is a,No,1,gorilla,yes,Please label the pictures below.,NA,41,NA,"There are a few issues with this experiment. First, often times I would come up with a label, only to discover that you have a very narrow definition of what that label should be. For the general 'monkey' label, I put 'primates', which should have been an acceptable response, but it wasn't, based on your narrow definitions. I changed the label to what you wanted, but it made me wonder what you could possibly be testing. Also, I feel that some of the images stretch what would be commonly known - is anyone really supposed to know that one of your dog images was a Great Dane? Or that the tree was a Sequoia, not an Oak? Perhaps it would help if the images were photos instead of illustrations, but probably not.",images/spidermonkey.jpg,monkeys,higher_degree,English,male,NA,monkeys|apes,NA,1,1564090275591,NA,1.5,These are both,gorilla,warmup
60,monkey,NA,4,images/gorilla.jpg,spider monkey,This is a,No,1,gorilla,yes,Please label the pictures below.,NA,41,NA,"There are a few issues with this experiment. First, often times I would come up with a label, only to discover that you have a very narrow definition of what that label should be. For the general 'monkey' label, I put 'primates', which should have been an acceptable response, but it wasn't, based on your narrow definitions. I changed the label to what you wanted, but it made me wonder what you could possibly be testing. Also, I feel that some of the images stretch what would be commonly known - is anyone really supposed to know that one of your dog images was a Great Dane? Or that the tree was a Sequoia, not an Oak? Perhaps it would help if the images were photos instead of illustrations, but probably not.",images/spidermonkey.jpg,monkeys,higher_degree,English,male,NA,monkeys|apes,NA,1,1564090275591,NA,1.5,These are both,gorilla,warmup
60,spider monkey,NA,4,images/gorilla.jpg,spider monkey,This is a,No,1,gorilla,yes,Please label the pictures below.,NA,41,NA,"There are a few issues with this experiment. First, often times I would come up with a label, only to discover that you have a very narrow definition of what that label should be. For the general 'monkey' label, I put 'primates', which should have been an acceptable response, but it wasn't, based on your narrow definitions. I changed the label to what you wanted, but it made me wonder what you could possibly be testing. Also, I feel that some of the images stretch what would be commonly known - is anyone really supposed to know that one of your dog images was a Great Dane? Or that the tree was a Sequoia, not an Oak? Perhaps it would help if the images were photos instead of illustrations, but probably not.",images/spidermonkey.jpg,monkeys,higher_degree,English,male,NA,monkeys|apes,NA,1,1564090275591,NA,1.5,These are both,gorilla,warmup
60,dandelion,NA,4,images/sunflower.png,daisy,This is a,No,1,sunflower,yes,Please label the pictures below.,NA,41,NA,"There are a few issues with this experiment. First, often times I would come up with a label, only to discover that you have a very narrow definition of what that label should be. For the general 'monkey' label, I put 'primates', which should have been an acceptable response, but it wasn't, based on your narrow definitions. I changed the label to what you wanted, but it made me wonder what you could possibly be testing. Also, I feel that some of the images stretch what would be commonly known - is anyone really supposed to know that one of your dog images was a Great Dane? Or that the tree was a Sequoia, not an Oak? Perhaps it would help if the images were photos instead of illustrations, but probably not.",images/daisy.png,flowers,higher_degree,English,male,NA,flowers,NA,2,1564090275591,NA,1.5,These are both,sunflower,warmup
60,daisy,NA,4,images/sunflower.png,daisy,This is a,No,1,sunflower,yes,Please label the pictures below.,NA,41,NA,"There are a few issues with this experiment. First, often times I would come up with a label, only to discover that you have a very narrow definition of what that label should be. For the general 'monkey' label, I put 'primates', which should have been an acceptable response, but it wasn't, based on your narrow definitions. I changed the label to what you wanted, but it made me wonder what you could possibly be testing. Also, I feel that some of the images stretch what would be commonly known - is anyone really supposed to know that one of your dog images was a Great Dane? Or that the tree was a Sequoia, not an Oak? Perhaps it would help if the images were photos instead of illustrations, but probably not.",images/daisy.png,flowers,higher_degree,English,male,NA,flowers,NA,2,1564090275591,NA,1.5,These are both,sunflower,warmup
60,marlin,NA,4,images/goldfish.png,swordfish,This is a,No,1,goldfish,yes,Please label the pictures below.,NA,41,NA,"There are a few issues with this experiment. First, often times I would come up with a label, only to discover that you have a very narrow definition of what that label should be. For the general 'monkey' label, I put 'primates', which should have been an acceptable response, but it wasn't, based on your narrow definitions. I changed the label to what you wanted, but it made me wonder what you could possibly be testing. Also, I feel that some of the images stretch what would be commonly known - is anyone really supposed to know that one of your dog images was a Great Dane? Or that the tree was a Sequoia, not an Oak? Perhaps it would help if the images were photos instead of illustrations, but probably not.",images/swordfish.jpg,fish,higher_degree,English,male,NA,fish,NA,3,1564090275591,NA,1.5,These are both,goldfish,warmup
60,swordfish,NA,4,images/goldfish.png,swordfish,This is a,No,1,goldfish,yes,Please label the pictures below.,NA,41,NA,"There are a few issues with this experiment. First, often times I would come up with a label, only to discover that you have a very narrow definition of what that label should be. For the general 'monkey' label, I put 'primates', which should have been an acceptable response, but it wasn't, based on your narrow definitions. I changed the label to what you wanted, but it made me wonder what you could possibly be testing. Also, I feel that some of the images stretch what would be commonly known - is anyone really supposed to know that one of your dog images was a Great Dane? Or that the tree was a Sequoia, not an Oak? Perhaps it would help if the images were photos instead of illustrations, but probably not.",images/swordfish.jpg,fish,higher_degree,English,male,NA,fish,NA,3,1564090275591,NA,1.5,These are both,goldfish,warmup
60,NA,images/fish-parade.png,4,NA,NA,That,No,1,NA,yes,Another animal belongs to the group.,You say to your friend:,41,fish,"There are a few issues with this experiment. First, often times I would come up with a label, only to discover that you have a very narrow definition of what that label should be. For the general 'monkey' label, I put 'primates', which should have been an acceptable response, but it wasn't, based on your narrow definitions. I changed the label to what you wanted, but it made me wonder what you could possibly be testing. Also, I feel that some of the images stretch what would be commonly known - is anyone really supposed to know that one of your dog images was a Great Dane? Or that the tree was a Sequoia, not an Oak? Perhaps it would help if the images were photos instead of illustrations, but probably not.",NA,NA,higher_degree,English,male,NA,NA,You see a group of animals.,1,1564090275591,images/goldfish.png,1.5,is small.,NA,main
60,NA,images/monkey-parade.png,4,NA,NA,That,No,1,NA,yes,Another animal belongs to the group.,You say to your friend:,41,ape,"There are a few issues with this experiment. First, often times I would come up with a label, only to discover that you have a very narrow definition of what that label should be. For the general 'monkey' label, I put 'primates', which should have been an acceptable response, but it wasn't, based on your narrow definitions. I changed the label to what you wanted, but it made me wonder what you could possibly be testing. Also, I feel that some of the images stretch what would be commonly known - is anyone really supposed to know that one of your dog images was a Great Dane? Or that the tree was a Sequoia, not an Oak? Perhaps it would help if the images were photos instead of illustrations, but probably not.",NA,NA,higher_degree,English,male,NA,NA,You see a group of animals.,2,1564090275591,images/gorilla.jpg,1.5,is big.,NA,main
60,NA,images/flower-parade.png,4,NA,NA,That,No,1,NA,yes,Another plant belongs to the group.,You say to your friend:,41,flower,"There are a few issues with this experiment. First, often times I would come up with a label, only to discover that you have a very narrow definition of what that label should be. For the general 'monkey' label, I put 'primates', which should have been an acceptable response, but it wasn't, based on your narrow definitions. I changed the label to what you wanted, but it made me wonder what you could possibly be testing. Also, I feel that some of the images stretch what would be commonly known - is anyone really supposed to know that one of your dog images was a Great Dane? Or that the tree was a Sequoia, not an Oak? Perhaps it would help if the images were photos instead of illustrations, but probably not.",NA,NA,higher_degree,English,male,NA,NA,You see a group of plants.,3,1564090275591,images/sunflower.png,1.5,is big.,NA,main
60,oak tree,NA,4,images/bonsai.jpg,redwood|sequoia,This is a,No,1,bonsai,yes,Please label the pictures below.,NA,41,NA,"There are a few issues with this experiment. First, often times I would come up with a label, only to discover that you have a very narrow definition of what that label should be. For the general 'monkey' label, I put 'primates', which should have been an acceptable response, but it wasn't, based on your narrow definitions. I changed the label to what you wanted, but it made me wonder what you could possibly be testing. Also, I feel that some of the images stretch what would be commonly known - is anyone really supposed to know that one of your dog images was a Great Dane? Or that the tree was a Sequoia, not an Oak? Perhaps it would help if the images were photos instead of illustrations, but probably not.",images/sequoia.jpg,trees,higher_degree,English,male,NA,trees,NA,1,1564090275591,NA,1.5,These are both,bonzai tree,warmup
60,redwood,NA,4,images/bonsai.jpg,redwood|sequoia,This is a,No,1,bonsai,yes,Please label the pictures below.,NA,41,NA,"There are a few issues with this experiment. First, often times I would come up with a label, only to discover that you have a very narrow definition of what that label should be. For the general 'monkey' label, I put 'primates', which should have been an acceptable response, but it wasn't, based on your narrow definitions. I changed the label to what you wanted, but it made me wonder what you could possibly be testing. Also, I feel that some of the images stretch what would be commonly known - is anyone really supposed to know that one of your dog images was a Great Dane? Or that the tree was a Sequoia, not an Oak? Perhaps it would help if the images were photos instead of illustrations, but probably not.",images/sequoia.jpg,trees,higher_degree,English,male,NA,trees,NA,1,1564090275591,NA,1.5,These are both,bonsai,warmup
60,chihuahua,NA,4,images/great-dane.jpg,chihuahua,This is a,No,1,great dane,yes,Please label the pictures below.,NA,41,NA,"There are a few issues with this experiment. First, often times I would come up with a label, only to discover that you have a very narrow definition of what that label should be. For the general 'monkey' label, I put 'primates', which should have been an acceptable response, but it wasn't, based on your narrow definitions. I changed the label to what you wanted, but it made me wonder what you could possibly be testing. Also, I feel that some of the images stretch what would be commonly known - is anyone really supposed to know that one of your dog images was a Great Dane? Or that the tree was a Sequoia, not an Oak? Perhaps it would help if the images were photos instead of illustrations, but probably not.",images/chihuahua.jpg,dogs,higher_degree,English,male,NA,dogs,NA,2,1564090275591,NA,1.5,These are both,hound,warmup
60,chihuahua,NA,4,images/great-dane.jpg,chihuahua,This is a,No,1,great dane,yes,Please label the pictures below.,NA,41,NA,"There are a few issues with this experiment. First, often times I would come up with a label, only to discover that you have a very narrow definition of what that label should be. For the general 'monkey' label, I put 'primates', which should have been an acceptable response, but it wasn't, based on your narrow definitions. I changed the label to what you wanted, but it made me wonder what you could possibly be testing. Also, I feel that some of the images stretch what would be commonly known - is anyone really supposed to know that one of your dog images was a Great Dane? Or that the tree was a Sequoia, not an Oak? Perhaps it would help if the images were photos instead of illustrations, but probably not.",images/chihuahua.jpg,dogs,higher_degree,English,male,NA,dogs,NA,2,1564090275591,NA,1.5,These are both,great dane,warmup
60,swan,NA,4,images/colibri.jpg,swan,This is a,No,1,hummingbird,yes,Please label the pictures below.,NA,41,NA,"There are a few issues with this experiment. First, often times I would come up with a label, only to discover that you have a very narrow definition of what that label should be. For the general 'monkey' label, I put 'primates', which should have been an acceptable response, but it wasn't, based on your narrow definitions. I changed the label to what you wanted, but it made me wonder what you could possibly be testing. Also, I feel that some of the images stretch what would be commonly known - is anyone really supposed to know that one of your dog images was a Great Dane? Or that the tree was a Sequoia, not an Oak? Perhaps it would help if the images were photos instead of illustrations, but probably not.",images/swan.jpg,birds,higher_degree,English,male,NA,birds,NA,3,1564090275591,NA,1.5,These are both,hummingbird,warmup
60,NA,images/dog_parade_small.png,4,NA,NA,That,No,1,NA,yes,Another animal belongs to the group.,You say to your friend:,41,dog,"There are a few issues with this experiment. First, often times I would come up with a label, only to discover that you have a very narrow definition of what that label should be. For the general 'monkey' label, I put 'primates', which should have been an acceptable response, but it wasn't, based on your narrow definitions. I changed the label to what you wanted, but it made me wonder what you could possibly be testing. Also, I feel that some of the images stretch what would be commonly known - is anyone really supposed to know that one of your dog images was a Great Dane? Or that the tree was a Sequoia, not an Oak? Perhaps it would help if the images were photos instead of illustrations, but probably not.",NA,NA,higher_degree,English,male,NA,NA,You see a group of animals.,1,1564090275591,images/chihuahua.jpg,1.5,is small.,NA,main
60,NA,images/bird-parade-small.png,4,NA,NA,That,No,1,NA,yes,Another animal bleongs to the group.,You say to your friend:,41,bird,"There are a few issues with this experiment. First, often times I would come up with a label, only to discover that you have a very narrow definition of what that label should be. For the general 'monkey' label, I put 'primates', which should have been an acceptable response, but it wasn't, based on your narrow definitions. I changed the label to what you wanted, but it made me wonder what you could possibly be testing. Also, I feel that some of the images stretch what would be commonly known - is anyone really supposed to know that one of your dog images was a Great Dane? Or that the tree was a Sequoia, not an Oak? Perhaps it would help if the images were photos instead of illustrations, but probably not.",NA,NA,higher_degree,English,male,NA,NA,You see a group of animals.,2,1564090275591,images/colibri.jpg,1.5,is small.,NA,main
60,NA,images/tree-parade.png,4,NA,NA,That,No,1,NA,yes,Another plant belongs to the group.,You say to your friend:,41,tree,"There are a few issues with this experiment. First, often times I would come up with a label, only to discover that you have a very narrow definition of what that label should be. For the general 'monkey' label, I put 'primates', which should have been an acceptable response, but it wasn't, based on your narrow definitions. I changed the label to what you wanted, but it made me wonder what you could possibly be testing. Also, I feel that some of the images stretch what would be commonly known - is anyone really supposed to know that one of your dog images was a Great Dane? Or that the tree was a Sequoia, not an Oak? Perhaps it would help if the images were photos instead of illustrations, but probably not.",NA,NA,higher_degree,English,male,NA,NA,You see a group of plants.,3,1564090275591,images/sequoia.jpg,1.5,is big.,NA,main
59,daisy,NA,4,images/sunflower.png,daisy,This is a,NA,1,sunflower,yes,Please label the pictures below.,NA,23,NA,NA,images/daisy.png,flowers,some_college,english,male,NA,flowers,NA,1,1564090267925,NA,0.75,These are both,sunflower,warmup
59,chihuahua,NA,4,images/great-dane.jpg,chihuahua,This is a,NA,1,great dane,yes,Please label the pictures below.,NA,23,NA,NA,images/chihuahua.jpg,dogs,some_college,english,male,NA,dogs,NA,2,1564090267925,NA,0.75,These are both,labrador,warmup
59,chihuahua,NA,4,images/great-dane.jpg,chihuahua,This is a,NA,1,great dane,yes,Please label the pictures below.,NA,23,NA,NA,images/chihuahua.jpg,dogs,some_college,english,male,NA,dogs,NA,2,1564090267925,NA,0.75,These are both,great dane,warmup
59,Pine,NA,4,images/bonsai.jpg,redwood|sequoia,This is a,NA,1,bonsai,yes,Please label the pictures below.,NA,23,NA,NA,images/sequoia.jpg,trees,some_college,english,male,NA,trees,NA,3,1564090267925,NA,0.75,These are both,bonsai,warmup
59,redwood,NA,4,images/bonsai.jpg,redwood|sequoia,This is a,NA,1,bonsai,yes,Please label the pictures below.,NA,23,NA,NA,images/sequoia.jpg,trees,some_college,english,male,NA,trees,NA,3,1564090267925,NA,0.75,These are both,bonsai,warmup
59,NA,images/dog_parade.png,4,NA,NA,That's a big,NA,1,NA,yes,Another animal belongs to the group.,You say to your friend:,23,great dane,NA,NA,NA,some_college,english,male,NA,NA,You see a group of animals.,1,1564090267925,images/great-dane.jpg,0.75,NA,NA,main
59,NA,images/tree-parade.png,4,NA,NA,That's a big,NA,1,NA,yes,Another plant belongs to the group.,You say to your friend:,23,redwood,NA,NA,NA,some_college,english,male,NA,NA,You see a group of plants.,2,1564090267925,images/sequoia.jpg,0.75,NA,NA,main
59,NA,images/flower-parade-small.png,4,NA,NA,That's a small,NA,1,NA,yes,Another plant belongs to the group.,You say to your friend:,23,daisy,NA,NA,NA,some_college,english,male,NA,NA,You see a group of plants.,3,1564090267925,images/daisy.png,0.75,NA,NA,main
59,swordfish,NA,4,images/goldfish.png,swordfish,This is a,NA,1,goldfish,yes,Please label the pictures below.,NA,23,NA,NA,images/swordfish.jpg,fish,some_college,english,male,NA,fish,NA,1,1564090267925,NA,0.75,These are both,goldfish,warmup
59,monkey,NA,4,images/gorilla.jpg,spider monkey,This is a,NA,1,gorilla,yes,Please label the pictures below.,NA,23,NA,NA,images/spidermonkey.jpg,apes,some_college,english,male,NA,monkeys|apes,NA,2,1564090267925,NA,0.75,These are both,gorilla,warmup
59,spider monkey,NA,4,images/gorilla.jpg,spider monkey,This is a,NA,1,gorilla,yes,Please label the pictures below.,NA,23,NA,NA,images/spidermonkey.jpg,apes,some_college,english,male,NA,monkeys|apes,NA,2,1564090267925,NA,0.75,These are both,gorilla,warmup
59,swan,NA,4,images/colibri.jpg,swan,This is a,NA,1,hummingbird,yes,Please label the pictures below.,NA,23,NA,NA,images/swan.jpg,birds,some_college,english,male,NA,birds,NA,3,1564090267925,NA,0.75,These are both,hummingbird,warmup
59,NA,images/monkey-parade-small.png,4,NA,NA,That's a small,NA,1,NA,yes,Another animal belongs to the group.,You say to your friend:,23,spider monkey,NA,NA,NA,some_college,english,male,NA,NA,You see a group of animals.,1,1564090267925,images/spidermonkey.jpg,0.75,NA,NA,main
59,NA,images/fish-parade.png,4,NA,NA,That's a small,NA,1,NA,yes,Another animal belongs to the group.,You say to your friend:,23,goldfish,NA,NA,NA,some_college,english,male,NA,NA,You see a group of animals.,2,1564090267925,images/goldfish.png,0.75,NA,NA,main
59,NA,images/bird-parade.png,4,NA,NA,That's a big,NA,1,NA,yes,Another animal belongs to the group.,You say to your friend:,23,swan,NA,NA,NA,some_college,english,male,NA,NA,You see a group of animals.,3,1564090267925,images/swan.jpg,0.75,NA,NA,main
58,monkey,NA,4,images/gorilla.jpg,spider monkey,This is a,no,2,gorilla,yes,Please label the pictures below.,NA,61,NA,NA,images/spidermonkey.jpg,apes,some_college,English,female,NA,monkeys|apes,NA,1,1564089765046,NA,1.25,These are both,gorilla,warmup
58,spider monkey,NA,4,images/gorilla.jpg,spider monkey,This is a,no,2,gorilla,yes,Please label the pictures below.,NA,61,NA,NA,images/spidermonkey.jpg,apes,some_college,English,female,NA,monkeys|apes,NA,1,1564089765046,NA,1.25,These are both,gorilla,warmup
58,daisy,NA,4,images/sunflower.png,daisy,This is a,no,2,sunflower,yes,Please label the pictures below.,NA,61,NA,NA,images/daisy.png,flowers,some_college,English,female,NA,flowers,NA,2,1564089765046,NA,1.25,These are both,sunflower,warmup
58,chihuhua,NA,4,images/great-dane.jpg,chihuahua,This is a,no,2,great dane,yes,Please label the pictures below.,NA,61,NA,NA,images/chihuahua.jpg,dogs,some_college,English,female,NA,dogs,NA,3,1564089765046,NA,1.25,These are both,great dane,warmup
58,chihuahua,NA,4,images/great-dane.jpg,chihuahua,This is a,no,2,great dane,yes,Please label the pictures below.,NA,61,NA,NA,images/chihuahua.jpg,dogs,some_college,English,female,NA,dogs,NA,3,1564089765046,NA,1.25,These are both,great dane,warmup
58,NA,images/dog_parade_small.png,4,NA,NA,That,no,2,NA,yes,Another animal belongs to the group.,You say to your friend:,61,dog,NA,NA,NA,some_college,English,female,NA,NA,You see a group of animals.,1,1564089765046,images/chihuahua.jpg,1.25,is small.,NA,main
58,NA,images/monkey-parade.png,4,NA,NA,That,no,2,NA,yes,Another animal belongs to the group.,You say to your friend:,61,monkey,NA,NA,NA,some_college,English,female,NA,NA,You see a group of animals.,2,1564089765046,images/gorilla.jpg,1.25,is big.,NA,main
58,NA,images/flower-parade.png,4,NA,NA,That,no,2,NA,yes,Another plant belongs to the group.,You say to your friend:,61,flower,NA,NA,NA,some_college,English,female,NA,NA,You see a group of plants.,3,1564089765046,images/sunflower.png,1.25,is big.,NA,main
58,cedar,NA,4,images/bonsai.jpg,redwood|sequoia,This is a,no,2,bonsai,yes,Please label the pictures below.,NA,61,NA,NA,images/sequoia.jpg,trees,some_college,English,female,NA,trees,NA,1,1564089765046,NA,1.25,These are both,bonzai,warmup
58,redwood,NA,4,images/bonsai.jpg,redwood|sequoia,This is a,no,2,bonsai,yes,Please label the pictures below.,NA,61,NA,NA,images/sequoia.jpg,trees,some_college,English,female,NA,trees,NA,1,1564089765046,NA,1.25,These are both,bonsai,warmup
58,swan,NA,4,images/colibri.jpg,swan,This is a,no,2,hummingbird,yes,Please label the pictures below.,NA,61,NA,NA,images/swan.jpg,birds,some_college,English,female,NA,birds,NA,2,1564089765046,NA,1.25,These are both,hummingbird,warmup
58,swordfish,NA,4,images/goldfish.png,swordfish,This is a,no,2,goldfish,yes,Please label the pictures below.,NA,61,NA,NA,images/swordfish.jpg,fish,some_college,English,female,NA,fish,NA,3,1564089765046,NA,1.25,These are both,goldfish,warmup
58,NA,images/bird-parade.png,4,NA,NA,That,no,2,NA,yes,Another animal belongs to the group.,You say to your friend:,61,bird,NA,NA,NA,some_college,English,female,NA,NA,You see a group of animals.,1,1564089765046,images/swan.jpg,1.25,is big.,NA,main
58,NA,images/fish-parade.png,4,NA,NA,That,no,2,NA,yes,Another animal belongs to the group.,You say to your friend:,61,fish,NA,NA,NA,some_college,English,female,NA,NA,You see a group of animals.,2,1564089765046,images/swordfish.jpg,1.25,is big.,NA,main
58,NA,images/tree-parade.png,4,NA,NA,That,no,2,NA,yes,Another plant belongs to the group.,You say to your friend:,61,tree,NA,NA,NA,some_college,English,female,NA,NA,You see a group of plants.,3,1564089765046,images/sequoia.jpg,1.25,is big.,NA,main
57,tree,NA,4,images/bonsai.jpg,redwood|sequoia,This is a,no,1,bonsai,yes,Please label the pictures below.,NA,25,NA,NA,images/sequoia.jpg,trees,graduated_college,english,male,NA,trees,NA,1,1564089642700,NA,1.5,These are both,tree,warmup
57,tree,NA,4,images/bonsai.jpg,redwood|sequoia,This is a,no,1,bonsai,yes,Please label the pictures below.,NA,25,NA,NA,images/sequoia.jpg,trees,graduated_college,english,male,NA,trees,NA,1,1564089642700,NA,1.5,These are both,tree,warmup
57,tree,NA,4,images/bonsai.jpg,redwood|sequoia,This is a,no,1,bonsai,yes,Please label the pictures below.,NA,25,NA,NA,images/sequoia.jpg,trees,graduated_college,english,male,NA,trees,NA,1,1564089642700,NA,1.5,These are both,tree,warmup
57,tree,NA,4,images/bonsai.jpg,redwood|sequoia,This is a,no,1,bonsai,yes,Please label the pictures below.,NA,25,NA,NA,images/sequoia.jpg,trees,graduated_college,english,male,NA,trees,NA,1,1564089642700,NA,1.5,These are both,tree,warmup
57,tree,NA,4,images/bonsai.jpg,redwood|sequoia,This is a,no,1,bonsai,yes,Please label the pictures below.,NA,25,NA,NA,images/sequoia.jpg,trees,graduated_college,english,male,NA,trees,NA,1,1564089642700,NA,1.5,These are both,tree,warmup
57,tree,NA,4,images/bonsai.jpg,redwood|sequoia,This is a,no,1,bonsai,yes,Please label the pictures below.,NA,25,NA,NA,images/sequoia.jpg,trees,graduated_college,english,male,NA,trees,NA,1,1564089642700,NA,1.5,These are both,tree,warmup
57,tree,NA,4,images/bonsai.jpg,redwood|sequoia,This is a,no,1,bonsai,yes,Please label the pictures below.,NA,25,NA,NA,images/sequoia.jpg,trees,graduated_college,english,male,NA,trees,NA,1,1564089642700,NA,1.5,These are both,tree,warmup
57,tree,NA,4,images/bonsai.jpg,redwood|sequoia,This is a,no,1,bonsai,yes,Please label the pictures below.,NA,25,NA,NA,images/sequoia.jpg,trees,graduated_college,english,male,NA,trees,NA,1,1564089642700,NA,1.5,These are both,tree,warmup
57,tree,NA,4,images/bonsai.jpg,redwood|sequoia,This is a,no,1,bonsai,yes,Please label the pictures below.,NA,25,NA,NA,images/sequoia.jpg,trees,graduated_college,english,male,NA,trees,NA,1,1564089642700,NA,1.5,These are both,tree,warmup
57,tree,NA,4,images/bonsai.jpg,redwood|sequoia,This is a,no,1,bonsai,yes,Please label the pictures below.,NA,25,NA,NA,images/sequoia.jpg,trees,graduated_college,english,male,NA,trees,NA,1,1564089642700,NA,1.5,These are both,tree,warmup
57,tree,NA,4,images/bonsai.jpg,redwood|sequoia,This is a,no,1,bonsai,yes,Please label the pictures below.,NA,25,NA,NA,images/sequoia.jpg,trees,graduated_college,english,male,NA,trees,NA,1,1564089642700,NA,1.5,These are both,tree,warmup
57,tree,NA,4,images/bonsai.jpg,redwood|sequoia,This is a,no,1,bonsai,yes,Please label the pictures below.,NA,25,NA,NA,images/sequoia.jpg,trees,graduated_college,english,male,NA,trees,NA,1,1564089642700,NA,1.5,These are both,tree,warmup
57,redwood,NA,4,images/bonsai.jpg,redwood|sequoia,This is a,no,1,bonsai,yes,Please label the pictures below.,NA,25,NA,NA,images/sequoia.jpg,trees,graduated_college,english,male,NA,trees,NA,1,1564089642700,NA,1.5,These are both,bonsai,warmup
57,monkey,NA,4,images/gorilla.jpg,spider monkey,This is a,no,1,gorilla,yes,Please label the pictures below.,NA,25,NA,NA,images/spidermonkey.jpg,primates,graduated_college,english,male,NA,monkeys|apes,NA,2,1564089642700,NA,1.5,These are both,gorilla,warmup
57,monkey,NA,4,images/gorilla.jpg,spider monkey,This is a,no,1,gorilla,yes,Please label the pictures below.,NA,25,NA,NA,images/spidermonkey.jpg,primates,graduated_college,english,male,NA,monkeys|apes,NA,2,1564089642700,NA,1.5,These are both,gorilla,warmup
57,monkey,NA,4,images/gorilla.jpg,spider monkey,This is a,no,1,gorilla,yes,Please label the pictures below.,NA,25,NA,NA,images/spidermonkey.jpg,primates,graduated_college,english,male,NA,monkeys|apes,NA,2,1564089642700,NA,1.5,These are both,gorilla,warmup
57,monkey,NA,4,images/gorilla.jpg,spider monkey,This is a,no,1,gorilla,yes,Please label the pictures below.,NA,25,NA,NA,images/spidermonkey.jpg,primates,graduated_college,english,male,NA,monkeys|apes,NA,2,1564089642700,NA,1.5,These are both,gorilla,warmup
57,spider monkey,NA,4,images/gorilla.jpg,spider monkey,This is a,no,1,gorilla,yes,Please label the pictures below.,NA,25,NA,NA,images/spidermonkey.jpg,primates,graduated_college,english,male,NA,monkeys|apes,NA,2,1564089642700,NA,1.5,These are both,gorilla,warmup
57,spider monkey,NA,4,images/gorilla.jpg,spider monkey,This is a,no,1,gorilla,yes,Please label the pictures below.,NA,25,NA,NA,images/spidermonkey.jpg,primates,graduated_college,english,male,NA,monkeys|apes,NA,2,1564089642700,NA,1.5,These are both,gorilla,warmup
57,spider monkey,NA,4,images/gorilla.jpg,spider monkey,This is a,no,1,gorilla,yes,Please label the pictures below.,NA,25,NA,NA,images/spidermonkey.jpg,primates,graduated_college,english,male,NA,monkeys|apes,NA,2,1564089642700,NA,1.5,These are both,gorilla,warmup
57,spider monkey,NA,4,images/gorilla.jpg,spider monkey,This is a,no,1,gorilla,yes,Please label the pictures below.,NA,25,NA,NA,images/spidermonkey.jpg,primates,graduated_college,english,male,NA,monkeys|apes,NA,2,1564089642700,NA,1.5,These are both,gorilla,warmup
57,spider monkey,NA,4,images/gorilla.jpg,spider monkey,This is a,no,1,gorilla,yes,Please label the pictures below.,NA,25,NA,NA,images/spidermonkey.jpg,apes,graduated_college,english,male,NA,monkeys|apes,NA,2,1564089642700,NA,1.5,These are both,gorilla,warmup
57,swan,NA,4,images/colibri.jpg,swan,This is a,no,1,hummingbird,yes,Please label the pictures below.,NA,25,NA,NA,images/swan.jpg,birds,graduated_college,english,male,NA,birds,NA,3,1564089642700,NA,1.5,These are both,hummingbird,warmup
57,NA,images/tree-parade.png,4,NA,NA,That's a small,no,1,NA,yes,Another plant belongs to the group.,You say to your friend:,25,tree,NA,NA,NA,graduated_college,english,male,NA,NA,You see a group of plants.,1,1564089642700,images/bonsai.jpg,1.5,NA,NA,main
57,NA,images/bird-parade.png,4,NA,NA,That's a big,no,1,NA,yes,Another animal belongs to the group.,You say to your friend:,25,swan,NA,NA,NA,graduated_college,english,male,NA,NA,You see a group of animals.,2,1564089642700,images/swan.jpg,1.5,NA,NA,main
57,NA,images/monkey-parade-small.png,4,NA,NA,That's a small,no,1,NA,yes,Another animal belongs to the group.,You say to your friend:,25,monkey,NA,NA,NA,graduated_college,english,male,NA,NA,You see a group of animals.,3,1564089642700,images/spidermonkey.jpg,1.5,NA,NA,main
57,marlin,NA,4,images/goldfish.png,swordfish,This is a,no,1,goldfish,yes,Please label the pictures below.,NA,25,NA,NA,images/swordfish.jpg,fish,graduated_college,english,male,NA,fish,NA,1,1564089642700,NA,1.5,These are both,goldfish,warmup
57,swordfish,NA,4,images/goldfish.png,swordfish,This is a,no,1,goldfish,yes,Please label the pictures below.,NA,25,NA,NA,images/swordfish.jpg,fish,graduated_college,english,male,NA,fish,NA,1,1564089642700,NA,1.5,These are both,goldfish,warmup
57,dandelion,NA,4,images/sunflower.png,daisy,This is a,no,1,sunflower,yes,Please label the pictures below.,NA,25,NA,NA,images/daisy.png,flowers,graduated_college,english,male,NA,flowers,NA,2,1564089642700,NA,1.5,These are both,sunflower,warmup
57,daisy,NA,4,images/sunflower.png,daisy,This is a,no,1,sunflower,yes,Please label the pictures below.,NA,25,NA,NA,images/daisy.png,flowers,graduated_college,english,male,NA,flowers,NA,2,1564089642700,NA,1.5,These are both,sunflower,warmup
57,chihuahua,NA,4,images/great-dane.jpg,chihuahua,This is a,no,1,great dane,yes,Please label the pictures below.,NA,25,NA,NA,images/chihuahua.jpg,dogs,graduated_college,english,male,NA,dogs,NA,3,1564089642700,NA,1.5,These are both,daschund,warmup
57,chihuahua,NA,4,images/great-dane.jpg,chihuahua,This is a,no,1,great dane,yes,Please label the pictures below.,NA,25,NA,NA,images/chihuahua.jpg,dogs,graduated_college,english,male,NA,dogs,NA,3,1564089642700,NA,1.5,These are both,great dane,warmup
57,NA,images/dog_parade_small.png,4,NA,NA,That's a small,no,1,NA,yes,Another animal belongs to the group.,You say to your friend:,25,dog,NA,NA,NA,graduated_college,english,male,NA,NA,You see a group of animals.,1,1564089642700,images/chihuahua.jpg,1.5,NA,NA,main
57,NA,images/fish-parade.png,4,NA,NA,That's a small,no,1,NA,yes,Another animal belongs to the group.,You say to your friend:,25,fish,NA,NA,NA,graduated_college,english,male,NA,NA,You see a group of animals.,2,1564089642700,images/goldfish.png,1.5,NA,NA,main
57,NA,images/flower-parade.png,4,NA,NA,That's a big,no,1,NA,yes,Another plant belongs to the group.,You say to your friend:,25,flower,NA,NA,NA,graduated_college,english,male,NA,NA,You see a group of plants.,3,1564089642700,images/sunflower.png,1.5,NA,NA,main
56,little monkey fella,NA,4,images/gorilla.jpg,spider monkey,This is a,nope,2,gorilla,yes,Please label the pictures below.,NA,35,NA,"well i don't get it, but ok, good luck to you",images/spidermonkey.jpg,apes,some_college,english,male,NA,monkeys|apes,NA,1,1564089078863,NA,1.25,These are both,gorilla,warmup
56,spider monkey,NA,4,images/gorilla.jpg,spider monkey,This is a,nope,2,gorilla,yes,Please label the pictures below.,NA,35,NA,"well i don't get it, but ok, good luck to you",images/spidermonkey.jpg,apes,some_college,english,male,NA,monkeys|apes,NA,1,1564089078863,NA,1.25,These are both,gorilla,warmup
56,swan,NA,4,images/colibri.jpg,swan,This is a,nope,2,hummingbird,yes,Please label the pictures below.,NA,35,NA,"well i don't get it, but ok, good luck to you",images/swan.jpg,birds,some_college,english,male,NA,birds,NA,2,1564089078863,NA,1.25,These are both,hummingbird,warmup
56,marlin,NA,4,images/goldfish.png,swordfish,This is a,nope,2,goldfish,yes,Please label the pictures below.,NA,35,NA,"well i don't get it, but ok, good luck to you",images/swordfish.jpg,fish,some_college,english,male,NA,fish,NA,3,1564089078863,NA,1.25,These are both,goldfish,warmup
56,swordfish,NA,4,images/goldfish.png,swordfish,This is a,nope,2,goldfish,yes,Please label the pictures below.,NA,35,NA,"well i don't get it, but ok, good luck to you",images/swordfish.jpg,fish,some_college,english,male,NA,fish,NA,3,1564089078863,NA,1.25,These are both,goldfish,warmup
56,NA,images/bird-parade.png,4,NA,NA,That's a big,nope,2,NA,yes,Another animal belongs to the group.,You say to your friend:,35,swan,"well i don't get it, but ok, good luck to you",NA,NA,some_college,english,male,NA,NA,You see a group of animals.,1,1564089078863,images/swan.jpg,1.25,NA,NA,main
56,NA,images/monkey-parade-small.png,4,NA,NA,That's a small,nope,2,NA,yes,Another animal belongs to the group.,You say to your friend:,35,spider monkey,"well i don't get it, but ok, good luck to you",NA,NA,some_college,english,male,NA,NA,You see a group of animals.,2,1564089078863,images/spidermonkey.jpg,1.25,NA,NA,main
56,NA,images/fish-parade.png,4,NA,NA,That's a small,nope,2,NA,yes,Another animal belongs to the group.,You say to your friend:,35,goldfish,"well i don't get it, but ok, good luck to you",NA,NA,some_college,english,male,NA,NA,You see a group of animals.,3,1564089078863,images/goldfish.png,1.25,NA,NA,main
56,chihuahua,NA,4,images/great-dane.jpg,chihuahua,This is a,nope,2,great dane,yes,Please label the pictures below.,NA,35,NA,"well i don't get it, but ok, good luck to you",images/chihuahua.jpg,dogs,some_college,english,male,NA,dogs,NA,1,1564089078863,NA,1.25,These are both,labrador,warmup
56,chihuahua,NA,4,images/great-dane.jpg,chihuahua,This is a,nope,2,great dane,yes,Please label the pictures below.,NA,35,NA,"well i don't get it, but ok, good luck to you",images/chihuahua.jpg,dogs,some_college,english,male,NA,dogs,NA,1,1564089078863,NA,1.25,These are both,great dane,warmup
56,spruce,NA,4,images/bonsai.jpg,redwood|sequoia,This is a,nope,2,bonsai,yes,Please label the pictures below.,NA,35,NA,"well i don't get it, but ok, good luck to you",images/sequoia.jpg,tree,some_college,english,male,NA,trees,NA,2,1564089078863,NA,1.25,These are both,bonsai,warmup
56,redwood,NA,4,images/bonsai.jpg,redwood|sequoia,This is a,nope,2,bonsai,yes,Please label the pictures below.,NA,35,NA,"well i don't get it, but ok, good luck to you",images/sequoia.jpg,tree,some_college,english,male,NA,trees,NA,2,1564089078863,NA,1.25,These are both,bonsai,warmup
56,redwood,NA,4,images/bonsai.jpg,redwood|sequoia,This is a,nope,2,bonsai,yes,Please label the pictures below.,NA,35,NA,"well i don't get it, but ok, good luck to you",images/sequoia.jpg,trees,some_college,english,male,NA,trees,NA,2,1564089078863,NA,1.25,These are both,bonsai,warmup
56,daisy,NA,4,images/sunflower.png,daisy,This is a,nope,2,sunflower,yes,Please label the pictures below.,NA,35,NA,"well i don't get it, but ok, good luck to you",images/daisy.png,flowers,some_college,english,male,NA,flowers,NA,3,1564089078863,NA,1.25,These are both,sunflower,warmup
56,NA,images/tree-parade.png,4,NA,NA,That's a small,nope,2,NA,yes,Another plant belongs to the group.,You say to your friend:,35,bonsai,"well i don't get it, but ok, good luck to you",NA,NA,some_college,english,male,NA,NA,You see a group of plants.,1,1564089078863,images/bonsai.jpg,1.25,NA,NA,main
56,NA,images/flower-parade.png,4,NA,NA,That's a big,nope,2,NA,yes,Another plant belongs to the group.,You say to your friend:,35,sunflower,"well i don't get it, but ok, good luck to you",NA,NA,some_college,english,male,NA,NA,You see a group of plants.,2,1564089078863,images/sunflower.png,1.25,NA,NA,main
56,NA,images/dog_parade.png,4,NA,NA,That's a big,nope,2,NA,yes,Another animal belongs to the group.,You say to your friend:,35,great dane,"well i don't get it, but ok, good luck to you",NA,NA,some_college,english,male,NA,NA,You see a group of animals.,3,1564089078863,images/great-dane.jpg,1.25,NA,NA,main
55,monkey,NA,4,images/gorilla.jpg,spider monkey,This is a,No problems.,1,gorilla,yes,Please label the pictures below.,NA,44,NA,"Nothing, thanks.",images/spidermonkey.jpg,primates,some_college,English,female,NA,monkeys|apes,NA,1,1564088811614,NA,1.1,These are both,gorilla,warmup
55,spider monkey,NA,4,images/gorilla.jpg,spider monkey,This is a,No problems.,1,gorilla,yes,Please label the pictures below.,NA,44,NA,"Nothing, thanks.",images/spidermonkey.jpg,apes,some_college,English,female,NA,monkeys|apes,NA,1,1564088811614,NA,1.1,These are both,gorilla,warmup
55,daisy,NA,4,images/sunflower.png,daisy,This is a,No problems.,1,sunflower,yes,Please label the pictures below.,NA,44,NA,"Nothing, thanks.",images/daisy.png,flowers,some_college,English,female,NA,flowers,NA,2,1564088811614,NA,1.1,These are both,sunflower,warmup
55,redwood,NA,4,images/bonsai.jpg,redwood|sequoia,This is a,No problems.,1,bonsai,yes,Please label the pictures below.,NA,44,NA,"Nothing, thanks.",images/sequoia.jpg,trees,some_college,English,female,NA,trees,NA,3,1564088811614,NA,1.1,These are both,bonsai,warmup
55,NA,images/tree-parade.png,4,NA,NA,That,No problems.,1,NA,yes,Another plant belongs to the group.,You say to your friend:,44,tree,"Nothing, thanks.",NA,NA,some_college,English,female,NA,NA,You see a group of plants.,1,1564088811614,images/sequoia.jpg,1.1,is big.,NA,main
55,NA,images/flower-parade.png,4,NA,NA,That,No problems.,1,NA,yes,Another plant belongs to the group.,You say to your friend:,44,sunflower,"Nothing, thanks.",NA,NA,some_college,English,female,NA,NA,You see a group of plants.,2,1564088811614,images/sunflower.png,1.1,is big.,NA,main
55,NA,images/monkey-parade.png,4,NA,NA,That,No problems.,1,NA,yes,Another animal belongs to the group.,You say to your friend:,44,gorilla,"Nothing, thanks.",NA,NA,some_college,English,female,NA,NA,You see a group of animals.,3,1564088811614,images/gorilla.jpg,1.1,is big.,NA,main
55,swan,NA,4,images/colibri.jpg,swan,This is a,No problems.,1,hummingbird,yes,Please label the pictures below.,NA,44,NA,"Nothing, thanks.",images/swan.jpg,birds,some_college,English,female,NA,birds,NA,1,1564088811614,NA,1.1,These are both,hummingbird,warmup
55,chihuahua,NA,4,images/great-dane.jpg,chihuahua,This is a,No problems.,1,great dane,yes,Please label the pictures below.,NA,44,NA,"Nothing, thanks.",images/chihuahua.jpg,dogs,some_college,English,female,NA,dogs,NA,2,1564088811614,NA,1.1,These are both,jhyfj,warmup
55,chihuahua,NA,4,images/great-dane.jpg,chihuahua,This is a,No problems.,1,great dane,yes,Please label the pictures below.,NA,44,NA,"Nothing, thanks.",images/chihuahua.jpg,dogs,some_college,English,female,NA,dogs,NA,2,1564088811614,NA,1.1,These are both,great dane,warmup
55,swordfish,NA,4,images/goldfish.png,swordfish,This is a,No problems.,1,goldfish,yes,Please label the pictures below.,NA,44,NA,"Nothing, thanks.",images/swordfish.jpg,fish,some_college,English,female,NA,fish,NA,3,1564088811614,NA,1.1,These are both,goldfish,warmup
55,NA,images/fish-parade.png,4,NA,NA,That,No problems.,1,NA,yes,Another animal belongs to the group.,You say to your friend:,44,goldfish,"Nothing, thanks.",NA,NA,some_college,English,female,NA,NA,You see a group of animals.,1,1564088811614,images/goldfish.png,1.1,is small.,NA,main
55,NA,images/dog_parade.png,4,NA,NA,That,No problems.,1,NA,yes,Another animal belongs to the group.,You say to your friend:,44,great dane,"Nothing, thanks.",NA,NA,some_college,English,female,NA,NA,You see a group of animals.,2,1564088811614,images/great-dane.jpg,1.1,is big.,NA,main
55,NA,images/bird-parade.png,4,NA,NA,That,No problems.,1,NA,yes,Another animal belongs to the group.,You say to your friend:,44,swan,"Nothing, thanks.",NA,NA,some_college,English,female,NA,NA,You see a group of animals.,3,1564088811614,images/swan.jpg,1.1,is big.,NA,main
54,shark,NA,4,images/goldfish.png,swordfish,This is a,NA,2,goldfish,yes,Please label the pictures below.,NA,30,NA,"Great survey, gives you a chance to learn too",images/swordfish.jpg,fishes,higher_degree,English,female,NA,fish,NA,1,1564088696441,NA,1,These are both,fish,warmup
54,shark,NA,4,images/goldfish.png,swordfish,This is a,NA,2,goldfish,yes,Please label the pictures below.,NA,30,NA,"Great survey, gives you a chance to learn too",images/swordfish.jpg,fishes,higher_degree,English,female,NA,fish,NA,1,1564088696441,NA,1,These are both,fish,warmup
54,swordfish,NA,4,images/goldfish.png,swordfish,This is a,NA,2,goldfish,yes,Please label the pictures below.,NA,30,NA,"Great survey, gives you a chance to learn too",images/swordfish.jpg,fish,higher_degree,English,female,NA,fish,NA,1,1564088696441,NA,1,These are both,goldfish,warmup
54,lily,NA,4,images/sunflower.png,daisy,This is a,NA,2,sunflower,yes,Please label the pictures below.,NA,30,NA,"Great survey, gives you a chance to learn too",images/daisy.png,flower,higher_degree,English,female,NA,flowers,NA,2,1564088696441,NA,1,These are both,sunflower,warmup
54,daisy,NA,4,images/sunflower.png,daisy,This is a,NA,2,sunflower,yes,Please label the pictures below.,NA,30,NA,"Great survey, gives you a chance to learn too",images/daisy.png,flower,higher_degree,English,female,NA,flowers,NA,2,1564088696441,NA,1,These are both,sunflower,warmup
54,daisy,NA,4,images/sunflower.png,daisy,This is a,NA,2,sunflower,yes,Please label the pictures below.,NA,30,NA,"Great survey, gives you a chance to learn too",images/daisy.png,flowers,higher_degree,English,female,NA,flowers,NA,2,1564088696441,NA,1,These are both,sunflower,warmup
54,wolf,NA,4,images/great-dane.jpg,chihuahua,This is a,NA,2,great dane,yes,Please label the pictures below.,NA,30,NA,"Great survey, gives you a chance to learn too",images/chihuahua.jpg,animals,higher_degree,English,female,NA,dogs,NA,3,1564088696441,NA,1,These are both,dog,warmup
54,chihuahua,NA,4,images/great-dane.jpg,chihuahua,This is a,NA,2,great dane,yes,Please label the pictures below.,NA,30,NA,"Great survey, gives you a chance to learn too",images/chihuahua.jpg,dogs,higher_degree,English,female,NA,dogs,NA,3,1564088696441,NA,1,These are both,great dane,warmup
54,NA,images/dog_parade_small.png,4,NA,NA,That,NA,2,NA,yes,Another animal belongs to the group.,You say to your friend:,30,chihuahua,"Great survey, gives you a chance to learn too",NA,NA,higher_degree,English,female,NA,NA,You see a group of animals.,1,1564088696441,images/chihuahua.jpg,1,is small.,NA,main
54,NA,images/fish-parade.png,4,NA,NA,That,NA,2,NA,yes,Another animal belongs to the group.,You say to your friend:,30,swordfish,"Great survey, gives you a chance to learn too",NA,NA,higher_degree,English,female,NA,NA,You see a group of animals.,2,1564088696441,images/swordfish.jpg,1,is big.,NA,main
54,NA,images/flower-parade.png,4,NA,NA,That,NA,2,NA,yes,Another plant belongs to the group.,You say to your friend:,30,sunflower,"Great survey, gives you a chance to learn too",NA,NA,higher_degree,English,female,NA,NA,You see a group of plants.,3,1564088696441,images/sunflower.png,1,is big.,NA,main
54,chimpanzee,NA,4,images/gorilla.jpg,spider monkey,This is a,NA,2,gorilla,yes,Please label the pictures below.,NA,30,NA,"Great survey, gives you a chance to learn too",images/spidermonkey.jpg,monkeys,higher_degree,English,female,NA,monkeys|apes,NA,1,1564088696441,NA,1,These are both,gorilla,warmup
54,spider monkey\n\nspider monkey\n\nspider monkey,NA,4,images/gorilla.jpg,spider monkey,This is a,NA,2,gorilla,yes,Please label the pictures below.,NA,30,NA,"Great survey, gives you a chance to learn too",images/spidermonkey.jpg,monkeys,higher_degree,English,female,NA,monkeys|apes,NA,1,1564088696441,NA,1,These are both,gorilla,warmup
54,spider monkey\n\nspider monkey\n\nspider monkey,NA,4,images/gorilla.jpg,spider monkey,This is a,NA,2,gorilla,yes,Please label the pictures below.,NA,30,NA,"Great survey, gives you a chance to learn too",images/spidermonkey.jpg,monkeys,higher_degree,English,female,NA,monkeys|apes,NA,1,1564088696441,NA,1,These are both,gorilla,warmup
54,spider monkey\n\nspider monkey\n\nspider monkey,NA,4,images/gorilla.jpg,spider monkey,This is a,NA,2,gorilla,yes,Please label the pictures below.,NA,30,NA,"Great survey, gives you a chance to learn too",images/spidermonkey.jpg,monkeys,higher_degree,English,female,NA,monkeys|apes,NA,1,1564088696441,NA,1,These are both,gorilla,warmup
54,spider monkey\n\nspider monkey\n\nspider monkey,NA,4,images/gorilla.jpg,spider monkey,This is a,NA,2,gorilla,yes,Please label the pictures below.,NA,30,NA,"Great survey, gives you a chance to learn too",images/spidermonkey.jpg,monkey,higher_degree,English,female,NA,monkeys|apes,NA,1,1564088696441,NA,1,These are both,gorilla,warmup
54,spider monkey\n\nspider monkey\n\nspider monkey,NA,4,images/gorilla.jpg,spider monkey,This is a,NA,2,gorilla,yes,Please label the pictures below.,NA,30,NA,"Great survey, gives you a chance to learn too",images/spidermonkey.jpg,apes,higher_degree,English,female,NA,monkeys|apes,NA,1,1564088696441,NA,1,These are both,gorilla,warmup
54,spider monkey\n\nspider monkey\n\nspider monkey,NA,4,images/gorilla.jpg,spider monkey,This is a,NA,2,gorilla,yes,Please label the pictures below.,NA,30,NA,"Great survey, gives you a chance to learn too",images/spidermonkey.jpg,apes,higher_degree,English,female,NA,monkeys|apes,NA,1,1564088696441,NA,1,These are both,[dd,warmup
54,spider monkey\n\nspider monkey\n\nspider monkey,NA,4,images/gorilla.jpg,spider monkey,This is a,NA,2,gorilla,yes,Please label the pictures below.,NA,30,NA,"Great survey, gives you a chance to learn too",images/spidermonkey.jpg,apes,higher_degree,English,female,NA,monkeys|apes,NA,1,1564088696441,NA,1,These are both,gorilla,warmup
54,spider monkey\n\nspider monkey\n\nspider monkey,NA,4,images/gorilla.jpg,spider monkey,This is a,NA,2,gorilla,yes,Please label the pictures below.,NA,30,NA,"Great survey, gives you a chance to learn too",images/spidermonkey.jpg,apes,higher_degree,English,female,NA,monkeys|apes,NA,1,1564088696441,NA,1,These are both,gorilla,warmup
54,spider monkey\n\nspider monkey\n\nspider monkey,NA,4,images/gorilla.jpg,spider monkey,This is a,NA,2,gorilla,yes,Please label the pictures below.,NA,30,NA,"Great survey, gives you a chance to learn too",images/spidermonkey.jpg,apes,higher_degree,English,female,NA,monkeys|apes,NA,1,1564088696441,NA,1,These are both,gorilla,warmup
54,spider monkey\n\nspider monkey\n\nspider monkey,NA,4,images/gorilla.jpg,spider monkey,This is a,NA,2,gorilla,yes,Please label the pictures below.,NA,30,NA,"Great survey, gives you a chance to learn too",images/spidermonkey.jpg,apes,higher_degree,English,female,NA,monkeys|apes,NA,1,1564088696441,NA,1,These are both,gorilla,warmup
54,spider monkey\n\nspider monkey\n\nspider monkey,NA,4,images/gorilla.jpg,spider monkey,This is a,NA,2,gorilla,yes,Please label the pictures below.,NA,30,NA,"Great survey, gives you a chance to learn too",images/spidermonkey.jpg,apes,higher_degree,English,female,NA,monkeys|apes,NA,1,1564088696441,NA,1,These are both,gorilla,warmup
54,spider monkey,NA,4,images/gorilla.jpg,spider monkey,This is a,NA,2,gorilla,yes,Please label the pictures below.,NA,30,NA,"Great survey, gives you a chance to learn too",images/spidermonkey.jpg,apes,higher_degree,English,female,NA,monkeys|apes,NA,1,1564088696441,NA,1,These are both,gorilla,warmup
54,swan,NA,4,images/colibri.jpg,swan,This is a,NA,2,hummingbird,yes,Please label the pictures below.,NA,30,NA,"Great survey, gives you a chance to learn too",images/swan.jpg,birds,higher_degree,English,female,NA,birds,NA,2,1564088696441,NA,1,These are both,woodpecker,warmup
54,swan,NA,4,images/colibri.jpg,swan,This is a,NA,2,hummingbird,yes,Please label the pictures below.,NA,30,NA,"Great survey, gives you a chance to learn too",images/swan.jpg,birds,higher_degree,English,female,NA,birds,NA,2,1564088696441,NA,1,These are both,hummingbird,warmup
54,tree,NA,4,images/bonsai.jpg,redwood|sequoia,This is a,NA,2,bonsai,yes,Please label the pictures below.,NA,30,NA,"Great survey, gives you a chance to learn too",images/sequoia.jpg,plants,higher_degree,English,female,NA,trees,NA,3,1564088696441,NA,1,These are both,shrub,warmup
54,redwood,NA,4,images/bonsai.jpg,redwood|sequoia,This is a,NA,2,bonsai,yes,Please label the pictures below.,NA,30,NA,"Great survey, gives you a chance to learn too",images/sequoia.jpg,trees,higher_degree,English,female,NA,trees,NA,3,1564088696441,NA,1,These are both,bonsai,warmup
54,NA,images/monkey-parade.png,4,NA,NA,That,NA,2,NA,yes,Another animal belongs to the group.,You say to your friend:,30,chimpanzee,"Great survey, gives you a chance to learn too",NA,NA,higher_degree,English,female,NA,NA,You see a group of animals.,1,1564088696441,images/gorilla.jpg,1,is big.,NA,main
54,NA,images/tree-parade.png,4,NA,NA,That,NA,2,NA,yes,Another plant belongs to the group.,You say to your friend:,30,bonsai,"Great survey, gives you a chance to learn too",NA,NA,higher_degree,English,female,NA,NA,You see a group of plants.,2,1564088696441,images/bonsai.jpg,1,is small.,NA,main
54,NA,images/bird-parade.png,4,NA,NA,That,NA,2,NA,yes,Another animal belongs to the group.,You say to your friend:,30,swan,"Great survey, gives you a chance to learn too",NA,NA,higher_degree,English,female,NA,NA,You see a group of animals.,3,1564088696441,images/swan.jpg,1,is big.,NA,main
53,flower,NA,4,images/sunflower.png,daisy,This is a,no,2,sunflower,yes,Please label the pictures below.,NA,28,NA,none,images/daisy.png,flowers,graduated_college,English,male,NA,flowers,NA,1,1564088655782,NA,1.2,These are both,sunflower,warmup
53,daisy,NA,4,images/sunflower.png,daisy,This is a,no,2,sunflower,yes,Please label the pictures below.,NA,28,NA,none,images/daisy.png,flowers,graduated_college,English,male,NA,flowers,NA,1,1564088655782,NA,1.2,These are both,sunflower,warmup
53,Chihuahua,NA,4,images/great-dane.jpg,chihuahua,This is a,no,2,great dane,yes,Please label the pictures below.,NA,28,NA,none,images/chihuahua.jpg,dogs,graduated_college,English,male,NA,dogs,NA,2,1564088655782,NA,1.2,These are both,doberman,warmup
53,Chihuahua,NA,4,images/great-dane.jpg,chihuahua,This is a,no,2,great dane,yes,Please label the pictures below.,NA,28,NA,none,images/chihuahua.jpg,dogs,graduated_college,English,male,NA,dogs,NA,2,1564088655782,NA,1.2,These are both,great dane,warmup
53,chimp,NA,4,images/gorilla.jpg,spider monkey,This is a,no,2,gorilla,yes,Please label the pictures below.,NA,28,NA,none,images/spidermonkey.jpg,apes,graduated_college,English,male,NA,monkeys|apes,NA,3,1564088655782,NA,1.2,These are both,gorilla,warmup
53,spider monkey,NA,4,images/gorilla.jpg,spider monkey,This is a,no,2,gorilla,yes,Please label the pictures below.,NA,28,NA,none,images/spidermonkey.jpg,apes,graduated_college,English,male,NA,monkeys|apes,NA,3,1564088655782,NA,1.2,These are both,gorilla,warmup
53,NA,images/monkey-parade-small.png,4,NA,NA,That's a small,no,2,NA,yes,Another animal belongs to the group.,You say to your friend:,28,spider monkey,none,NA,NA,graduated_college,English,male,NA,NA,You see a group of animals.,1,1564088655782,images/spidermonkey.jpg,1.2,NA,NA,main
53,NA,images/flower-parade-small.png,4,NA,NA,That's a small,no,2,NA,yes,Another plant belongs to the group.,You say to your friend:,28,daisy,none,NA,NA,graduated_college,English,male,NA,NA,You see a group of plants.,2,1564088655782,images/daisy.png,1.2,NA,NA,main
53,NA,images/dog_parade.png,4,NA,NA,That's a big,no,2,NA,yes,Another animal belongs to the group.,You say to your friend:,28,great dane,none,NA,NA,graduated_college,English,male,NA,NA,You see a group of animals.,3,1564088655782,images/great-dane.jpg,1.2,NA,NA,main
53,redwood,NA,4,images/bonsai.jpg,redwood|sequoia,This is a,no,2,bonsai,yes,Please label the pictures below.,NA,28,NA,none,images/sequoia.jpg,trees,graduated_college,English,male,NA,trees,NA,1,1564088655782,NA,1.2,These are both,bonsai,warmup
53,swam,NA,4,images/colibri.jpg,swan,This is a,no,2,hummingbird,yes,Please label the pictures below.,NA,28,NA,none,images/swan.jpg,birds,graduated_college,English,male,NA,birds,NA,2,1564088655782,NA,1.2,These are both,hummingbird,warmup
53,swan,NA,4,images/colibri.jpg,swan,This is a,no,2,hummingbird,yes,Please label the pictures below.,NA,28,NA,none,images/swan.jpg,birds,graduated_college,English,male,NA,birds,NA,2,1564088655782,NA,1.2,These are both,hummingbird,warmup
53,swordfish,NA,4,images/goldfish.png,swordfish,This is a,no,2,goldfish,yes,Please label the pictures below.,NA,28,NA,none,images/swordfish.jpg,fish,graduated_college,English,male,NA,fish,NA,3,1564088655782,NA,1.2,These are both,goldfish,warmup
53,NA,images/tree-parade.png,4,NA,NA,That's a small,no,2,NA,yes,Another plant belongs to the group.,You say to your friend:,28,bonsai,none,NA,NA,graduated_college,English,male,NA,NA,You see a group of plants.,1,1564088655782,images/bonsai.jpg,1.2,NA,NA,main
53,NA,images/fish-parade.png,4,NA,NA,That's a small,no,2,NA,yes,Another animal belongs to the group.,You say to your friend:,28,goldfish,none,NA,NA,graduated_college,English,male,NA,NA,You see a group of animals.,2,1564088655782,images/goldfish.png,1.2,NA,NA,main
53,NA,images/bird-parade.png,4,NA,NA,That's a big,no,2,NA,yes,Another animal belongs to the group.,You say to your friend:,28,swan,none,NA,NA,graduated_college,English,male,NA,NA,You see a group of animals.,3,1564088655782,images/swan.jpg,1.2,NA,NA,main
52,swan,NA,4,images/colibri.jpg,swan,This is a,NA,2,hummingbird,yes,Please label the pictures below.,NA,28,NA,NA,images/swan.jpg,birds,some_college,English,male,NA,birds,NA,1,1564088912390,NA,1.5,These are both,hummingbird,warmup
52,swordfish,NA,4,images/goldfish.png,swordfish,This is a,NA,2,goldfish,yes,Please label the pictures below.,NA,28,NA,NA,images/swordfish.jpg,fish,some_college,English,male,NA,fish,NA,2,1564088912390,NA,1.5,These are both,goldfish,warmup
52,chihuahua,NA,4,images/great-dane.jpg,chihuahua,This is a,NA,2,great dane,yes,Please label the pictures below.,NA,28,NA,NA,images/chihuahua.jpg,dogs,some_college,English,male,NA,dogs,NA,3,1564088912390,NA,1.5,These are both,lab,warmup
52,chihuahua,NA,4,images/great-dane.jpg,chihuahua,This is a,NA,2,great dane,yes,Please label the pictures below.,NA,28,NA,NA,images/chihuahua.jpg,dogs,some_college,English,male,NA,dogs,NA,3,1564088912390,NA,1.5,These are both,great dane,warmup
52,NA,images/fish-parade.png,4,NA,NA,That,NA,2,NA,yes,Another animal belongs to the group.,You say to your friend:,28,swordfish,NA,NA,NA,some_college,English,male,NA,NA,You see a group of animals.,1,1564088912390,images/swordfish.jpg,1.5,is big.,NA,main
52,NA,images/bird-parade.png,4,NA,NA,That,NA,2,NA,yes,Another animal belongs to the group.,You say to your friend:,28,swan,NA,NA,NA,some_college,English,male,NA,NA,You see a group of animals.,2,1564088912390,images/swan.jpg,1.5,is big.,NA,main
52,NA,images/dog_parade_small.png,4,NA,NA,That,NA,2,NA,yes,Another animal belongs to the group.,You say to your friend:,28,chihuahua,NA,NA,NA,some_college,English,male,NA,NA,You see a group of animals.,3,1564088912390,images/chihuahua.jpg,1.5,is small.,NA,main
52,fir,NA,4,images/bonsai.jpg,redwood|sequoia,This is a,NA,2,bonsai,yes,Please label the pictures below.,NA,28,NA,NA,images/sequoia.jpg,tree,some_college,English,male,NA,trees,NA,1,1564088912390,NA,1.5,These are both,bonsai,warmup
52,redwood,NA,4,images/bonsai.jpg,redwood|sequoia,This is a,NA,2,bonsai,yes,Please label the pictures below.,NA,28,NA,NA,images/sequoia.jpg,tree,some_college,English,male,NA,trees,NA,1,1564088912390,NA,1.5,These are both,bonsai,warmup
52,redwood,NA,4,images/bonsai.jpg,redwood|sequoia,This is a,NA,2,bonsai,yes,Please label the pictures below.,NA,28,NA,NA,images/sequoia.jpg,trees,some_college,English,male,NA,trees,NA,1,1564088912390,NA,1.5,These are both,bonsai,warmup
52,monkey,NA,4,images/gorilla.jpg,spider monkey,This is a,NA,2,gorilla,yes,Please label the pictures below.,NA,28,NA,NA,images/spidermonkey.jpg,monkey,some_college,English,male,NA,monkeys|apes,NA,2,1564088912390,NA,1.5,These are both,gorilla,warmup
52,spider monkey,NA,4,images/gorilla.jpg,spider monkey,This is a,NA,2,gorilla,yes,Please label the pictures below.,NA,28,NA,NA,images/spidermonkey.jpg,monkey,some_college,English,male,NA,monkeys|apes,NA,2,1564088912390,NA,1.5,These are both,gorilla,warmup
52,spider monkey,NA,4,images/gorilla.jpg,spider monkey,This is a,NA,2,gorilla,yes,Please label the pictures below.,NA,28,NA,NA,images/spidermonkey.jpg,monkey,some_college,English,male,NA,monkeys|apes,NA,2,1564088912390,NA,1.5,These are both,gorilla,warmup
52,spider monkey,NA,4,images/gorilla.jpg,spider monkey,This is a,NA,2,gorilla,yes,Please label the pictures below.,NA,28,NA,NA,images/spidermonkey.jpg,monkeys,some_college,English,male,NA,monkeys|apes,NA,2,1564088912390,NA,1.5,These are both,gorilla,warmup
52,daisy,NA,4,images/sunflower.png,daisy,This is a,NA,2,sunflower,yes,Please label the pictures below.,NA,28,NA,NA,images/daisy.png,flower,some_college,English,male,NA,flowers,NA,3,1564088912390,NA,1.5,These are both,sunflower,warmup
52,daisy,NA,4,images/sunflower.png,daisy,This is a,NA,2,sunflower,yes,Please label the pictures below.,NA,28,NA,NA,images/daisy.png,flowers,some_college,English,male,NA,flowers,NA,3,1564088912390,NA,1.5,These are both,sunflower,warmup
52,NA,images/monkey-parade-small.png,4,NA,NA,That,NA,2,NA,yes,Another animal belongs to the group.,You say to your friend:,28,spider monkey,NA,NA,NA,some_college,English,male,NA,NA,You see a group of animals.,1,1564088912390,images/spidermonkey.jpg,1.5,is small.,NA,main
52,NA,images/flower-parade-small.png,4,NA,NA,That,NA,2,NA,yes,Another plant belongs to the group.,You say to your friend:,28,daisy,NA,NA,NA,some_college,English,male,NA,NA,You see a group of plants.,2,1564088912390,images/daisy.png,1.5,is small.,NA,main
52,NA,images/tree-parade.png,4,NA,NA,That,NA,2,NA,yes,Another plant belongs to the group.,You say to your friend:,28,redwood,NA,NA,NA,some_college,English,male,NA,NA,You see a group of plants.,3,1564088912390,images/sequoia.jpg,1.5,is big.,NA,main
51,redwood,NA,4,images/bonsai.jpg,redwood|sequoia,This is a,No.,1,bonsai,NA,Please label the pictures below.,NA,NA,NA,NA,images/sequoia.jpg,trees,NA,English,NA,NA,trees,NA,1,1564088797377,NA,1,These are both,bonsai tree,warmup
51,redwood,NA,4,images/bonsai.jpg,redwood|sequoia,This is a,No.,1,bonsai,NA,Please label the pictures below.,NA,NA,NA,NA,images/sequoia.jpg,trees,NA,English,NA,NA,trees,NA,1,1564088797377,NA,1,These are both,bonsai,warmup
51,daisy,NA,4,images/sunflower.png,daisy,This is a,No.,1,sunflower,NA,Please label the pictures below.,NA,NA,NA,NA,images/daisy.png,flowers,NA,English,NA,NA,flowers,NA,2,1564088797377,NA,1,These are both,sunflower,warmup
51,swan,NA,4,images/colibri.jpg,swan,This is a,No.,1,hummingbird,NA,Please label the pictures below.,NA,NA,NA,NA,images/swan.jpg,birds,NA,English,NA,NA,birds,NA,3,1564088797377,NA,1,These are both,hummingbird,warmup
51,NA,images/tree-parade.png,4,NA,NA,That's a small,No.,1,NA,NA,Another plant belongs to the group.,You say to your friend:,NA,bonsai,NA,NA,NA,NA,English,NA,NA,NA,You see a group of plants.,1,1564088797377,images/bonsai.jpg,1,NA,NA,main
51,NA,images/bird-parade.png,4,NA,NA,That's a big,No.,1,NA,NA,Another animal belongs to the group.,You say to your friend:,NA,bird,NA,NA,NA,NA,English,NA,NA,NA,You see a group of animals.,2,1564088797377,images/swan.jpg,1,NA,NA,main
51,NA,images/flower-parade.png,4,NA,NA,That's a big,No.,1,NA,NA,Another plant belongs to the group.,You say to your friend:,NA,flower,NA,NA,NA,NA,English,NA,NA,NA,You see a group of plants.,3,1564088797377,images/sunflower.png,1,NA,NA,main
51,chihuahua,NA,4,images/great-dane.jpg,chihuahua,This is a,No.,1,great dane,NA,Please label the pictures below.,NA,NA,NA,NA,images/chihuahua.jpg,dogs,NA,English,NA,NA,dogs,NA,1,1564088797377,NA,1,These are both,mastiff,warmup
51,chihuahua,NA,4,images/great-dane.jpg,chihuahua,This is a,No.,1,great dane,NA,Please label the pictures below.,NA,NA,NA,NA,images/chihuahua.jpg,dogs,NA,English,NA,NA,dogs,NA,1,1564088797377,NA,1,These are both,great dane,warmup
51,swordfish,NA,4,images/goldfish.png,swordfish,This is a,No.,1,goldfish,NA,Please label the pictures below.,NA,NA,NA,NA,images/swordfish.jpg,fish,NA,English,NA,NA,fish,NA,2,1564088797377,NA,1,These are both,goldfish,warmup
51,monkey,NA,4,images/gorilla.jpg,spider monkey,This is a,No.,1,gorilla,NA,Please label the pictures below.,NA,NA,NA,NA,images/spidermonkey.jpg,monkeys,NA,English,NA,NA,monkeys|apes,NA,3,1564088797377,NA,1,These are both,gorilla,warmup
51,spider monkey,NA,4,images/gorilla.jpg,spider monkey,This is a,No.,1,gorilla,NA,Please label the pictures below.,NA,NA,NA,NA,images/spidermonkey.jpg,monkeys,NA,English,NA,NA,monkeys|apes,NA,3,1564088797377,NA,1,These are both,gorilla,warmup
51,NA,images/fish-parade.png,4,NA,NA,That's a big,No.,1,NA,NA,Another animal belongs to the group.,You say to your friend:,NA,fish,NA,NA,NA,NA,English,NA,NA,NA,You see a group of animals.,1,1564088797377,images/swordfish.jpg,1,NA,NA,main
51,NA,images/dog_parade.png,4,NA,NA,That's a big,No.,1,NA,NA,Another animal belongs to the group.,You say to your friend:,NA,dog,NA,NA,NA,NA,English,NA,NA,NA,You see a group of animals.,2,1564088797377,images/great-dane.jpg,1,NA,NA,main
51,NA,images/monkey-parade-small.png,4,NA,NA,That's a small,No.,1,NA,NA,Another animal belongs to the group.,You say to your friend:,NA,monkey,NA,NA,NA,NA,English,NA,NA,NA,You see a group of animals.,3,1564088797377,images/spidermonkey.jpg,1,NA,NA,main
50,Shark,NA,4,images/goldfish.png,swordfish,This is a,No problems or glitches.,2,goldfish,yes,Please label the pictures below.,NA,20,NA,NA,images/swordfish.jpg,Aquatic life,some_college,"English, Spanish",male,NA,fish,NA,1,1564088270309,NA,1.6,These are both,Fish,warmup
50,swordfish,NA,4,images/goldfish.png,swordfish,This is a,No problems or glitches.,2,goldfish,yes,Please label the pictures below.,NA,20,NA,NA,images/swordfish.jpg,fish,some_college,"English, Spanish",male,NA,fish,NA,1,1564088270309,NA,1.6,These are both,goldfish,warmup
50,goose,NA,4,images/colibri.jpg,swan,This is a,No problems or glitches.,2,hummingbird,yes,Please label the pictures below.,NA,20,NA,NA,images/swan.jpg,birds,some_college,"English, Spanish",male,NA,birds,NA,2,1564088270309,NA,1.6,These are both,Hunmingbird,warmup
50,swan,NA,4,images/colibri.jpg,swan,This is a,No problems or glitches.,2,hummingbird,yes,Please label the pictures below.,NA,20,NA,NA,images/swan.jpg,birds,some_college,"English, Spanish",male,NA,birds,NA,2,1564088270309,NA,1.6,These are both,hummingbird,warmup
50,Pine,NA,4,images/bonsai.jpg,redwood|sequoia,This is a,No problems or glitches.,2,bonsai,yes,Please label the pictures below.,NA,20,NA,NA,images/sequoia.jpg,trees,some_college,"English, Spanish",male,NA,trees,NA,3,1564088270309,NA,1.6,These are both,Bush,warmup
50,redwood,NA,4,images/bonsai.jpg,redwood|sequoia,This is a,No problems or glitches.,2,bonsai,yes,Please label the pictures below.,NA,20,NA,NA,images/sequoia.jpg,trees,some_college,"English, Spanish",male,NA,trees,NA,3,1564088270309,NA,1.6,These are both,bonsai,warmup
50,NA,images/tree-parade.png,4,NA,NA,That,No problems or glitches.,2,NA,yes,Another plant belongs to the group.,You say to your friend:,20,tree,NA,NA,NA,some_college,"English, Spanish",male,NA,NA,You see a group of plants.,1,1564088270309,images/sequoia.jpg,1.6,is big.,NA,main
50,NA,images/bird-parade-small.png,4,NA,NA,That,No problems or glitches.,2,NA,yes,Another animal bleongs to the group.,You say to your friend:,20,bird,NA,NA,NA,some_college,"English, Spanish",male,NA,NA,You see a group of animals.,2,1564088270309,images/colibri.jpg,1.6,is small.,NA,main
50,NA,images/fish-parade.png,4,NA,NA,That,No problems or glitches.,2,NA,yes,Another animal belongs to the group.,You say to your friend:,20,fish,NA,NA,NA,some_college,"English, Spanish",male,NA,NA,You see a group of animals.,3,1564088270309,images/swordfish.jpg,1.6,is big.,NA,main
50,jackal,NA,4,images/great-dane.jpg,chihuahua,This is a,No problems or glitches.,2,great dane,yes,Please label the pictures below.,NA,20,NA,NA,images/chihuahua.jpg,dogs,some_college,"English, Spanish",male,NA,dogs,NA,1,1564088270309,NA,1.6,These are both,great dane,warmup
50,chihuahua,NA,4,images/great-dane.jpg,chihuahua,This is a,No problems or glitches.,2,great dane,yes,Please label the pictures below.,NA,20,NA,NA,images/chihuahua.jpg,dogs,some_college,"English, Spanish",male,NA,dogs,NA,1,1564088270309,NA,1.6,These are both,great dane,warmup
50,daisy,NA,4,images/sunflower.png,daisy,This is a,No problems or glitches.,2,sunflower,yes,Please label the pictures below.,NA,20,NA,NA,images/daisy.png,flowers,some_college,"English, Spanish",male,NA,flowers,NA,2,1564088270309,NA,1.6,These are both,sunflower,warmup
50,monkey,NA,4,images/gorilla.jpg,spider monkey,This is a,No problems or glitches.,2,gorilla,yes,Please label the pictures below.,NA,20,NA,NA,images/spidermonkey.jpg,apes,some_college,"English, Spanish",male,NA,monkeys|apes,NA,3,1564088270309,NA,1.6,These are both,chimpaze,warmup
50,spider monkey,NA,4,images/gorilla.jpg,spider monkey,This is a,No problems or glitches.,2,gorilla,yes,Please label the pictures below.,NA,20,NA,NA,images/spidermonkey.jpg,apes,some_college,"English, Spanish",male,NA,monkeys|apes,NA,3,1564088270309,NA,1.6,These are both,gorilla,warmup
50,NA,images/monkey-parade.png,4,NA,NA,That,No problems or glitches.,2,NA,yes,Another animal belongs to the group.,You say to your friend:,20,ape,NA,NA,NA,some_college,"English, Spanish",male,NA,NA,You see a group of animals.,1,1564088270309,images/gorilla.jpg,1.6,is big.,NA,main
50,NA,images/flower-parade-small.png,4,NA,NA,That,No problems or glitches.,2,NA,yes,Another plant belongs to the group.,You say to your friend:,20,flower,NA,NA,NA,some_college,"English, Spanish",male,NA,NA,You see a group of plants.,2,1564088270309,images/daisy.png,1.6,is small.,NA,main
50,NA,images/dog_parade.png,4,NA,NA,That,No problems or glitches.,2,NA,yes,Another animal belongs to the group.,You say to your friend:,20,dog,NA,NA,NA,some_college,"English, Spanish",male,NA,NA,You see a group of animals.,3,1564088270309,images/great-dane.jpg,1.6,is big.,NA,main
49,daisy,NA,4,images/sunflower.png,daisy,This is a,NA,2,sunflower,yes,Please label the pictures below.,NA,33,NA,"The answers you expect seem to be quite specific at times. For instance, most people would look at your clip-art of a ""Redwood"" or ""Sequoia"" would immediately conclude that it's a ""tree"" without being specific. Not many people are aware of scientific names, but they can come up with the general classification. Similarly, people would see your ""Spider monkey"" and probably think of ""Chimp"" or ""Chimpanzee"" rather than your accepted answer.",images/daisy.png,flowers,graduated_college,English,male,NA,flowers,NA,1,1564088282748,NA,1.1,These are both,sunflower,warmup
49,swan,NA,4,images/colibri.jpg,swan,This is a,NA,2,hummingbird,yes,Please label the pictures below.,NA,33,NA,"The answers you expect seem to be quite specific at times. For instance, most people would look at your clip-art of a ""Redwood"" or ""Sequoia"" would immediately conclude that it's a ""tree"" without being specific. Not many people are aware of scientific names, but they can come up with the general classification. Similarly, people would see your ""Spider monkey"" and probably think of ""Chimp"" or ""Chimpanzee"" rather than your accepted answer.",images/swan.jpg,birds,graduated_college,English,male,NA,birds,NA,2,1564088282748,NA,1.1,These are both,hummingbird,warmup
49,swordfish,NA,4,images/goldfish.png,swordfish,This is a,NA,2,goldfish,yes,Please label the pictures below.,NA,33,NA,"The answers you expect seem to be quite specific at times. For instance, most people would look at your clip-art of a ""Redwood"" or ""Sequoia"" would immediately conclude that it's a ""tree"" without being specific. Not many people are aware of scientific names, but they can come up with the general classification. Similarly, people would see your ""Spider monkey"" and probably think of ""Chimp"" or ""Chimpanzee"" rather than your accepted answer.",images/swordfish.jpg,fish,graduated_college,English,male,NA,fish,NA,3,1564088282748,NA,1.1,These are both,goldfish,warmup
49,NA,images/bird-parade.png,4,NA,NA,That's a big,NA,2,NA,yes,Another animal belongs to the group.,You say to your friend:,33,bird,"The answers you expect seem to be quite specific at times. For instance, most people would look at your clip-art of a ""Redwood"" or ""Sequoia"" would immediately conclude that it's a ""tree"" without being specific. Not many people are aware of scientific names, but they can come up with the general classification. Similarly, people would see your ""Spider monkey"" and probably think of ""Chimp"" or ""Chimpanzee"" rather than your accepted answer.",NA,NA,graduated_college,English,male,NA,NA,You see a group of animals.,1,1564088282748,images/swan.jpg,1.1,NA,NA,main
49,NA,images/flower-parade.png,4,NA,NA,That's a big,NA,2,NA,yes,Another plant belongs to the group.,You say to your friend:,33,flower,"The answers you expect seem to be quite specific at times. For instance, most people would look at your clip-art of a ""Redwood"" or ""Sequoia"" would immediately conclude that it's a ""tree"" without being specific. Not many people are aware of scientific names, but they can come up with the general classification. Similarly, people would see your ""Spider monkey"" and probably think of ""Chimp"" or ""Chimpanzee"" rather than your accepted answer.",NA,NA,graduated_college,English,male,NA,NA,You see a group of plants.,2,1564088282748,images/sunflower.png,1.1,NA,NA,main
49,NA,images/fish-parade.png,4,NA,NA,That's a big,NA,2,NA,yes,Another animal belongs to the group.,You say to your friend:,33,fish,"The answers you expect seem to be quite specific at times. For instance, most people would look at your clip-art of a ""Redwood"" or ""Sequoia"" would immediately conclude that it's a ""tree"" without being specific. Not many people are aware of scientific names, but they can come up with the general classification. Similarly, people would see your ""Spider monkey"" and probably think of ""Chimp"" or ""Chimpanzee"" rather than your accepted answer.",NA,NA,graduated_college,English,male,NA,NA,You see a group of animals.,3,1564088282748,images/swordfish.jpg,1.1,NA,NA,main
49,tree,NA,4,images/bonsai.jpg,redwood|sequoia,This is a,NA,2,bonsai,yes,Please label the pictures below.,NA,33,NA,"The answers you expect seem to be quite specific at times. For instance, most people would look at your clip-art of a ""Redwood"" or ""Sequoia"" would immediately conclude that it's a ""tree"" without being specific. Not many people are aware of scientific names, but they can come up with the general classification. Similarly, people would see your ""Spider monkey"" and probably think of ""Chimp"" or ""Chimpanzee"" rather than your accepted answer.",images/sequoia.jpg,trees,graduated_college,English,male,NA,trees,NA,1,1564088282748,NA,1.1,These are both,bonsai,warmup
49,sequoia,NA,4,images/bonsai.jpg,redwood|sequoia,This is a,NA,2,bonsai,yes,Please label the pictures below.,NA,33,NA,"The answers you expect seem to be quite specific at times. For instance, most people would look at your clip-art of a ""Redwood"" or ""Sequoia"" would immediately conclude that it's a ""tree"" without being specific. Not many people are aware of scientific names, but they can come up with the general classification. Similarly, people would see your ""Spider monkey"" and probably think of ""Chimp"" or ""Chimpanzee"" rather than your accepted answer.",images/sequoia.jpg,trees,graduated_college,English,male,NA,trees,NA,1,1564088282748,NA,1.1,These are both,bonsai,warmup
49,chihuahua,NA,4,images/great-dane.jpg,chihuahua,This is a,NA,2,great dane,yes,Please label the pictures below.,NA,33,NA,"The answers you expect seem to be quite specific at times. For instance, most people would look at your clip-art of a ""Redwood"" or ""Sequoia"" would immediately conclude that it's a ""tree"" without being specific. Not many people are aware of scientific names, but they can come up with the general classification. Similarly, people would see your ""Spider monkey"" and probably think of ""Chimp"" or ""Chimpanzee"" rather than your accepted answer.",images/chihuahua.jpg,dogs,graduated_college,English,male,NA,dogs,NA,2,1564088282748,NA,1.1,These are both,Great Dane,warmup
49,chimp,NA,4,images/gorilla.jpg,spider monkey,This is a,NA,2,gorilla,yes,Please label the pictures below.,NA,33,NA,"The answers you expect seem to be quite specific at times. For instance, most people would look at your clip-art of a ""Redwood"" or ""Sequoia"" would immediately conclude that it's a ""tree"" without being specific. Not many people are aware of scientific names, but they can come up with the general classification. Similarly, people would see your ""Spider monkey"" and probably think of ""Chimp"" or ""Chimpanzee"" rather than your accepted answer.",images/spidermonkey.jpg,monkeys,graduated_college,English,male,NA,monkeys|apes,NA,3,1564088282748,NA,1.1,These are both,gorilla,warmup
49,spider monkey,NA,4,images/gorilla.jpg,spider monkey,This is a,NA,2,gorilla,yes,Please label the pictures below.,NA,33,NA,"The answers you expect seem to be quite specific at times. For instance, most people would look at your clip-art of a ""Redwood"" or ""Sequoia"" would immediately conclude that it's a ""tree"" without being specific. Not many people are aware of scientific names, but they can come up with the general classification. Similarly, people would see your ""Spider monkey"" and probably think of ""Chimp"" or ""Chimpanzee"" rather than your accepted answer.",images/spidermonkey.jpg,monkeys,graduated_college,English,male,NA,monkeys|apes,NA,3,1564088282748,NA,1.1,These are both,gorilla,warmup
49,NA,images/dog_parade.png,4,NA,NA,That's a big,NA,2,NA,yes,Another animal belongs to the group.,You say to your friend:,33,dog,"The answers you expect seem to be quite specific at times. For instance, most people would look at your clip-art of a ""Redwood"" or ""Sequoia"" would immediately conclude that it's a ""tree"" without being specific. Not many people are aware of scientific names, but they can come up with the general classification. Similarly, people would see your ""Spider monkey"" and probably think of ""Chimp"" or ""Chimpanzee"" rather than your accepted answer.",NA,NA,graduated_college,English,male,NA,NA,You see a group of animals.,1,1564088282748,images/great-dane.jpg,1.1,NA,NA,main
49,NA,images/monkey-parade-small.png,4,NA,NA,That's a small,NA,2,NA,yes,Another animal belongs to the group.,You say to your friend:,33,monkey,"The answers you expect seem to be quite specific at times. For instance, most people would look at your clip-art of a ""Redwood"" or ""Sequoia"" would immediately conclude that it's a ""tree"" without being specific. Not many people are aware of scientific names, but they can come up with the general classification. Similarly, people would see your ""Spider monkey"" and probably think of ""Chimp"" or ""Chimpanzee"" rather than your accepted answer.",NA,NA,graduated_college,English,male,NA,NA,You see a group of animals.,2,1564088282748,images/spidermonkey.jpg,1.1,NA,NA,main
49,NA,images/tree-parade.png,4,NA,NA,That's a big,NA,2,NA,yes,Another plant belongs to the group.,You say to your friend:,33,tree,"The answers you expect seem to be quite specific at times. For instance, most people would look at your clip-art of a ""Redwood"" or ""Sequoia"" would immediately conclude that it's a ""tree"" without being specific. Not many people are aware of scientific names, but they can come up with the general classification. Similarly, people would see your ""Spider monkey"" and probably think of ""Chimp"" or ""Chimpanzee"" rather than your accepted answer.",NA,NA,graduated_college,English,male,NA,NA,You see a group of plants.,3,1564088282748,images/sequoia.jpg,1.1,NA,NA,main
48,daisy,NA,4,images/sunflower.png,daisy,This is a,Not that I noticed,2,sunflower,yes,Please label the pictures below.,NA,27,NA,I enjoyed this HIT a lot!,images/daisy.png,flowers,graduated_high_school,English,male,NA,flowers,NA,1,1564088223666,NA,1.1,These are both,sunflower,warmup
48,chihuahua,NA,4,images/great-dane.jpg,chihuahua,This is a,Not that I noticed,2,great dane,yes,Please label the pictures below.,NA,27,NA,I enjoyed this HIT a lot!,images/chihuahua.jpg,dogs,graduated_high_school,English,male,NA,dogs,NA,2,1564088223666,NA,1.1,These are both,great dane,warmup
48,swan,NA,4,images/colibri.jpg,swan,This is a,Not that I noticed,2,hummingbird,yes,Please label the pictures below.,NA,27,NA,I enjoyed this HIT a lot!,images/swan.jpg,birds,graduated_high_school,English,male,NA,birds,NA,3,1564088223666,NA,1.1,These are both,humming bird,warmup
48,swan,NA,4,images/colibri.jpg,swan,This is a,Not that I noticed,2,hummingbird,yes,Please label the pictures below.,NA,27,NA,I enjoyed this HIT a lot!,images/swan.jpg,birds,graduated_high_school,English,male,NA,birds,NA,3,1564088223666,NA,1.1,These are both,hummingbird,warmup
48,NA,images/bird-parade-small.png,4,NA,NA,That,Not that I noticed,2,NA,yes,Another animal bleongs to the group.,You say to your friend:,27,bird,I enjoyed this HIT a lot!,NA,NA,graduated_high_school,English,male,NA,NA,You see a group of animals.,1,1564088223666,images/colibri.jpg,1.1,is small.,NA,main
48,NA,images/dog_parade_small.png,4,NA,NA,That,Not that I noticed,2,NA,yes,Another animal belongs to the group.,You say to your friend:,27,dog,I enjoyed this HIT a lot!,NA,NA,graduated_high_school,English,male,NA,NA,You see a group of animals.,2,1564088223666,images/chihuahua.jpg,1.1,is small.,NA,main
48,NA,images/flower-parade.png,4,NA,NA,That,Not that I noticed,2,NA,yes,Another plant belongs to the group.,You say to your friend:,27,flower,I enjoyed this HIT a lot!,NA,NA,graduated_high_school,English,male,NA,NA,You see a group of plants.,3,1564088223666,images/sunflower.png,1.1,is big.,NA,main
48,sequoia,NA,4,images/bonsai.jpg,redwood|sequoia,This is a,Not that I noticed,2,bonsai,yes,Please label the pictures below.,NA,27,NA,I enjoyed this HIT a lot!,images/sequoia.jpg,trees,graduated_high_school,English,male,NA,trees,NA,1,1564088223666,NA,1.1,These are both,bonsai,warmup
48,swordfish,NA,4,images/goldfish.png,swordfish,This is a,Not that I noticed,2,goldfish,yes,Please label the pictures below.,NA,27,NA,I enjoyed this HIT a lot!,images/swordfish.jpg,fish,graduated_high_school,English,male,NA,fish,NA,2,1564088223666,NA,1.1,These are both,goldfish,warmup
48,spidermonkey,NA,4,images/gorilla.jpg,spider monkey,This is a,Not that I noticed,2,gorilla,yes,Please label the pictures below.,NA,27,NA,I enjoyed this HIT a lot!,images/spidermonkey.jpg,monkeys,graduated_high_school,English,male,NA,monkeys|apes,NA,3,1564088223666,NA,1.1,These are both,gorilla,warmup
48,spider monkey,NA,4,images/gorilla.jpg,spider monkey,This is a,Not that I noticed,2,gorilla,yes,Please label the pictures below.,NA,27,NA,I enjoyed this HIT a lot!,images/spidermonkey.jpg,monkeys,graduated_high_school,English,male,NA,monkeys|apes,NA,3,1564088223666,NA,1.1,These are both,gorilla,warmup
48,NA,images/fish-parade.png,4,NA,NA,That,Not that I noticed,2,NA,yes,Another animal belongs to the group.,You say to your friend:,27,fish,I enjoyed this HIT a lot!,NA,NA,graduated_high_school,English,male,NA,NA,You see a group of animals.,1,1564088223666,images/goldfish.png,1.1,is small.,NA,main
48,NA,images/tree-parade.png,4,NA,NA,That,Not that I noticed,2,NA,yes,Another plant belongs to the group.,You say to your friend:,27,tree,I enjoyed this HIT a lot!,NA,NA,graduated_high_school,English,male,NA,NA,You see a group of plants.,2,1564088223666,images/bonsai.jpg,1.1,is small.,NA,main
48,NA,images/monkey-parade.png,4,NA,NA,That,Not that I noticed,2,NA,yes,Another animal belongs to the group.,You say to your friend:,27,primate,I enjoyed this HIT a lot!,NA,NA,graduated_high_school,English,male,NA,NA,You see a group of animals.,3,1564088223666,images/gorilla.jpg,1.1,is big.,NA,main
47,marlin,NA,4,images/goldfish.png,swordfish,This is a,no,2,goldfish,yes,Please label the pictures below.,NA,56,NA,took time to make specific corrections to breeds/species,images/swordfish.jpg,fish,graduated_college,english,female,NA,fish,NA,1,1564088024216,NA,1.25,These are both,goldfish,warmup
47,swordfish,NA,4,images/goldfish.png,swordfish,This is a,no,2,goldfish,yes,Please label the pictures below.,NA,56,NA,took time to make specific corrections to breeds/species,images/swordfish.jpg,fish,graduated_college,english,female,NA,fish,NA,1,1564088024216,NA,1.25,These are both,goldfish,warmup
47,daisy,NA,4,images/sunflower.png,daisy,This is a,no,2,sunflower,yes,Please label the pictures below.,NA,56,NA,took time to make specific corrections to breeds/species,images/daisy.png,flowers,graduated_college,english,female,NA,flowers,NA,2,1564088024216,NA,1.25,These are both,sunflower,warmup
47,monkey,NA,4,images/gorilla.jpg,spider monkey,This is a,no,2,gorilla,yes,Please label the pictures below.,NA,56,NA,took time to make specific corrections to breeds/species,images/spidermonkey.jpg,simians,graduated_college,english,female,NA,monkeys|apes,NA,3,1564088024216,NA,1.25,These are both,ape,warmup
47,monkey,NA,4,images/gorilla.jpg,spider monkey,This is a,no,2,gorilla,yes,Please label the pictures below.,NA,56,NA,took time to make specific corrections to breeds/species,images/spidermonkey.jpg,apes,graduated_college,english,female,NA,monkeys|apes,NA,3,1564088024216,NA,1.25,These are both,ape,warmup
47,monkey,NA,4,images/gorilla.jpg,spider monkey,This is a,no,2,gorilla,yes,Please label the pictures below.,NA,56,NA,took time to make specific corrections to breeds/species,images/spidermonkey.jpg,apes,graduated_college,english,female,NA,monkeys|apes,NA,3,1564088024216,NA,1.25,These are both,ape,warmup
47,monkey,NA,4,images/gorilla.jpg,spider monkey,This is a,no,2,gorilla,yes,Please label the pictures below.,NA,56,NA,took time to make specific corrections to breeds/species,images/spidermonkey.jpg,apes,graduated_college,english,female,NA,monkeys|apes,NA,3,1564088024216,NA,1.25,These are both,ape,warmup
47,monkey,NA,4,images/gorilla.jpg,spider monkey,This is a,no,2,gorilla,yes,Please label the pictures below.,NA,56,NA,took time to make specific corrections to breeds/species,images/spidermonkey.jpg,ape,graduated_college,english,female,NA,monkeys|apes,NA,3,1564088024216,NA,1.25,These are both,ape,warmup
47,monkey,NA,4,images/gorilla.jpg,spider monkey,This is a,no,2,gorilla,yes,Please label the pictures below.,NA,56,NA,took time to make specific corrections to breeds/species,images/spidermonkey.jpg,"monkeys,apes",graduated_college,english,female,NA,monkeys|apes,NA,3,1564088024216,NA,1.25,These are both,ape,warmup
47,monkey,NA,4,images/gorilla.jpg,spider monkey,This is a,no,2,gorilla,yes,Please label the pictures below.,NA,56,NA,took time to make specific corrections to breeds/species,images/spidermonkey.jpg,"monkeys,apes",graduated_college,english,female,NA,monkeys|apes,NA,3,1564088024216,NA,1.25,These are both,ape,warmup
47,monkey,NA,4,images/gorilla.jpg,spider monkey,This is a,no,2,gorilla,yes,Please label the pictures below.,NA,56,NA,took time to make specific corrections to breeds/species,images/spidermonkey.jpg,"monkeys,apes",graduated_college,english,female,NA,monkeys|apes,NA,3,1564088024216,NA,1.25,These are both,ape,warmup
47,monkey,NA,4,images/gorilla.jpg,spider monkey,This is a,no,2,gorilla,yes,Please label the pictures below.,NA,56,NA,took time to make specific corrections to breeds/species,images/spidermonkey.jpg,"monkeys,apes",graduated_college,english,female,NA,monkeys|apes,NA,3,1564088024216,NA,1.25,These are both,ape,warmup
47,monkey,NA,4,images/gorilla.jpg,spider monkey,This is a,no,2,gorilla,yes,Please label the pictures below.,NA,56,NA,took time to make specific corrections to breeds/species,images/spidermonkey.jpg,monkeys,graduated_college,english,female,NA,monkeys|apes,NA,3,1564088024216,NA,1.25,These are both,ape,warmup
47,monkey,NA,4,images/gorilla.jpg,spider monkey,This is a,no,2,gorilla,yes,Please label the pictures below.,NA,56,NA,took time to make specific corrections to breeds/species,images/spidermonkey.jpg,monkeys,graduated_college,english,female,NA,monkeys|apes,NA,3,1564088024216,NA,1.25,These are both,ape,warmup
47,monkey,NA,4,images/gorilla.jpg,spider monkey,This is a,no,2,gorilla,yes,Please label the pictures below.,NA,56,NA,took time to make specific corrections to breeds/species,images/spidermonkey.jpg,monkeys,graduated_college,english,female,NA,monkeys|apes,NA,3,1564088024216,NA,1.25,These are both,gorilla,warmup
47,spider monkey,NA,4,images/gorilla.jpg,spider monkey,This is a,no,2,gorilla,yes,Please label the pictures below.,NA,56,NA,took time to make specific corrections to breeds/species,images/spidermonkey.jpg,monkeys,graduated_college,english,female,NA,monkeys|apes,NA,3,1564088024216,NA,1.25,These are both,gorilla,warmup
47,NA,images/flower-parade.png,4,NA,NA,That's a big,no,2,NA,yes,Another plant belongs to the group.,You say to your friend:,56,flower,took time to make specific corrections to breeds/species,NA,NA,graduated_college,english,female,NA,NA,You see a group of plants.,1,1564088024216,images/sunflower.png,1.25,NA,NA,main
47,NA,images/monkey-parade.png,4,NA,NA,That's a big,no,2,NA,yes,Another animal belongs to the group.,You say to your friend:,56,ape,took time to make specific corrections to breeds/species,NA,NA,graduated_college,english,female,NA,NA,You see a group of animals.,2,1564088024216,images/gorilla.jpg,1.25,NA,NA,main
47,NA,images/fish-parade.png,4,NA,NA,That's a small,no,2,NA,yes,Another animal belongs to the group.,You say to your friend:,56,fish,took time to make specific corrections to breeds/species,NA,NA,graduated_college,english,female,NA,NA,You see a group of animals.,3,1564088024216,images/goldfish.png,1.25,NA,NA,main
47,tree,NA,4,images/bonsai.jpg,redwood|sequoia,This is a,no,2,bonsai,yes,Please label the pictures below.,NA,56,NA,took time to make specific corrections to breeds/species,images/sequoia.jpg,trees,graduated_college,english,female,NA,trees,NA,1,1564088024216,NA,1.25,These are both,fern,warmup
47,redwood,NA,4,images/bonsai.jpg,redwood|sequoia,This is a,no,2,bonsai,yes,Please label the pictures below.,NA,56,NA,took time to make specific corrections to breeds/species,images/sequoia.jpg,trees,graduated_college,english,female,NA,trees,NA,1,1564088024216,NA,1.25,These are both,bonsai,warmup
47,chihuahua,NA,4,images/great-dane.jpg,chihuahua,This is a,no,2,great dane,yes,Please label the pictures below.,NA,56,NA,took time to make specific corrections to breeds/species,images/chihuahua.jpg,dogs,graduated_college,english,female,NA,dogs,NA,2,1564088024216,NA,1.25,These are both,labrador,warmup
47,chihuahua,NA,4,images/great-dane.jpg,chihuahua,This is a,no,2,great dane,yes,Please label the pictures below.,NA,56,NA,took time to make specific corrections to breeds/species,images/chihuahua.jpg,dogs,graduated_college,english,female,NA,dogs,NA,2,1564088024216,NA,1.25,These are both,great dane,warmup
47,swan,NA,4,images/colibri.jpg,swan,This is a,no,2,hummingbird,yes,Please label the pictures below.,NA,56,NA,took time to make specific corrections to breeds/species,images/swan.jpg,birds,graduated_college,english,female,NA,birds,NA,3,1564088024216,NA,1.25,These are both,hummingbird,warmup
47,NA,images/tree-parade.png,4,NA,NA,That's a small,no,2,NA,yes,Another plant belongs to the group.,You say to your friend:,56,tree,took time to make specific corrections to breeds/species,NA,NA,graduated_college,english,female,NA,NA,You see a group of plants.,1,1564088024216,images/bonsai.jpg,1.25,NA,NA,main
47,NA,images/dog_parade.png,4,NA,NA,That's a big,no,2,NA,yes,Another animal belongs to the group.,You say to your friend:,56,dog,took time to make specific corrections to breeds/species,NA,NA,graduated_college,english,female,NA,NA,You see a group of animals.,2,1564088024216,images/great-dane.jpg,1.25,NA,NA,main
47,NA,images/bird-parade-small.png,4,NA,NA,That's a small,no,2,NA,yes,Another animal bleongs to the group.,You say to your friend:,56,bird,took time to make specific corrections to breeds/species,NA,NA,graduated_college,english,female,NA,NA,You see a group of animals.,3,1564088024216,images/colibri.jpg,1.25,NA,NA,main
46,daisy,NA,4,images/sunflower.png,daisy,This is a,NA,1,sunflower,NA,Please label the pictures below.,NA,NA,NA,I wish the pictures used where photos instead of cartoon drawings.,images/daisy.png,flowers,graduated_college,English,female,NA,flowers,NA,1,1564087683571,NA,1.5,These are both,sunflower,warmup
46,pine tree,NA,4,images/bonsai.jpg,redwood|sequoia,This is a,NA,1,bonsai,NA,Please label the pictures below.,NA,NA,NA,I wish the pictures used where photos instead of cartoon drawings.,images/sequoia.jpg,trees,graduated_college,English,female,NA,trees,NA,2,1564087683571,NA,1.5,These are both,bonsai,warmup
46,redwood,NA,4,images/bonsai.jpg,redwood|sequoia,This is a,NA,1,bonsai,NA,Please label the pictures below.,NA,NA,NA,I wish the pictures used where photos instead of cartoon drawings.,images/sequoia.jpg,trees,graduated_college,English,female,NA,trees,NA,2,1564087683571,NA,1.5,These are both,bonsai,warmup
46,chimp,NA,4,images/gorilla.jpg,spider monkey,This is a,NA,1,gorilla,NA,Please label the pictures below.,NA,NA,NA,I wish the pictures used where photos instead of cartoon drawings.,images/spidermonkey.jpg,monkeys,graduated_college,English,female,NA,monkeys|apes,NA,3,1564087683571,NA,1.5,These are both,gorilla,warmup
46,spider monkey,NA,4,images/gorilla.jpg,spider monkey,This is a,NA,1,gorilla,NA,Please label the pictures below.,NA,NA,NA,I wish the pictures used where photos instead of cartoon drawings.,images/spidermonkey.jpg,monkeys,graduated_college,English,female,NA,monkeys|apes,NA,3,1564087683571,NA,1.5,These are both,gorilla,warmup
46,NA,images/monkey-parade.png,4,NA,NA,That's a big,NA,1,NA,NA,Another animal belongs to the group.,You say to your friend:,NA,monkey,I wish the pictures used where photos instead of cartoon drawings.,NA,NA,graduated_college,English,female,NA,NA,You see a group of animals.,1,1564087683571,images/gorilla.jpg,1.5,NA,NA,main
46,NA,images/tree-parade.png,4,NA,NA,That's a small,NA,1,NA,NA,Another plant belongs to the group.,You say to your friend:,NA,tree,I wish the pictures used where photos instead of cartoon drawings.,NA,NA,graduated_college,English,female,NA,NA,You see a group of plants.,2,1564087683571,images/bonsai.jpg,1.5,NA,NA,main
46,NA,images/flower-parade.png,4,NA,NA,That's a big,NA,1,NA,NA,Another plant belongs to the group.,You say to your friend:,NA,flower,I wish the pictures used where photos instead of cartoon drawings.,NA,NA,graduated_college,English,female,NA,NA,You see a group of plants.,3,1564087683571,images/sunflower.png,1.5,NA,NA,main
46,Chihuahua,NA,4,images/great-dane.jpg,chihuahua,This is a,NA,1,great dane,NA,Please label the pictures below.,NA,NA,NA,I wish the pictures used where photos instead of cartoon drawings.,images/chihuahua.jpg,dogs,graduated_college,English,female,NA,dogs,NA,1,1564087683571,NA,1.5,These are both,st Bernard,warmup
