submission_id,response1,context_picture,experiment_id,picture2,correct1,question1,problems,enjoyment,item,botresponse,correct2,understand,text,condition,sentence,age,response,comments,picture1,response3,education,languages,sex,RT,correct3,context,trial_number,startTime,attempts,picture,question3,fairprice,question2,size,response2,trial_name
438,dandelion,NA,8,warmup/peony.png,daisy,This is a,No,2,flowers,mary,peony,yes,Please label the pictures below.,NA,NA,35,NA,NA,warmup/daisy.png,plants,graduated_high_school,English,male,NA,flowers,NA,1,1566834651968,1,NA,This is a,1,These are both,NA,flower,warmup1
438,daisy,NA,8,warmup/peony.png,daisy,This is a,No,2,flowers,mary,peony,yes,Please label the pictures below.,NA,NA,35,NA,NA,warmup/daisy.png,flowers,graduated_high_school,English,male,NA,flowers,NA,1,1566834651968,2,NA,This is a,1,These are both,NA,peony,warmup1
438,pug,NA,8,warmup/great-dane.jpg,pug,This is a,No,2,dogs,mary,great dane,yes,Please label the pictures below.,NA,NA,35,NA,NA,warmup/pug.jpg,dogs,graduated_high_school,English,male,NA,dogs,NA,2,1566834651968,1,NA,This is a,1,These are both,NA,great dane,warmup1
438,goose,NA,8,warmup/sparrow.jpg,goose,This is a,No,2,birds,mary,sparrow,yes,Please label the pictures below.,NA,NA,35,NA,NA,warmup/goose.png,birds,graduated_high_school,English,male,NA,birds,NA,3,1566834651968,1,NA,This is a,1,These are both,NA,chickadee,warmup1
438,goose,NA,8,warmup/sparrow.jpg,goose,This is a,No,2,birds,mary,sparrow,yes,Please label the pictures below.,NA,NA,35,NA,NA,warmup/goose.png,birds,graduated_high_school,English,male,NA,birds,NA,3,1566834651968,2,NA,This is a,1,These are both,NA,sparrow,warmup1
438,NA,images/dog-parade2.png,8,NA,NA,That,No,2,dogs,mary,NA,yes,This one is also in the parade.,predicative,You say to your friend:,35,dog,NA,NA,NA,graduated_high_school,English,male,NA,NA,You see a parade of animals.,1,1566834651968,NA,images/pug.png,NA,1,is small.,small,NA,main1
438,NA,images/bird-parade.png,8,NA,NA,That,No,2,birds,mary,NA,yes,This one is also in the parade.,predicative,You say to your friend:,35,sparrow,NA,NA,NA,graduated_high_school,English,male,NA,NA,You see a parade of animals.,2,1566834651968,NA,images/sparrow.png,NA,1,is small.,small,NA,main1
438,NA,images/flower-parade.png,8,NA,NA,That,No,2,flowers,mary,NA,yes,This one is also in the collection.,predicative,You say to your friend:,35,daisy,NA,NA,NA,graduated_high_school,English,male,NA,NA,You see a collection of plants.,3,1566834651968,NA,images/daisy.png,NA,1,is small.,small,NA,main1
438,dandelion,NA,8,warmup/sunflower.png,dandelion,This is a,No,2,flowers,mary,sunflower,yes,Please label the pictures below.,NA,NA,35,NA,NA,warmup/dandelion.jpg,flowers,graduated_high_school,English,male,NA,flowers,NA,1,1566834651968,1,NA,This is a,1,These are both,NA,sunflower,warmup2
438,redwood,NA,8,warmup/bonsai.jpg,redwood|sequoia,This is a,No,2,trees,mary,bonsai,yes,Please label the pictures below.,NA,NA,35,NA,NA,warmup/sequoia.jpg,trees,graduated_high_school,English,male,NA,trees,NA,2,1566834651968,1,NA,This is a,1,These are both,NA,bonsai,warmup2
438,chihuahua,NA,8,warmup/doberman.png,chihuahua,This is a,No,2,dogs,mary,doberman,yes,Please label the pictures below.,NA,NA,35,NA,NA,warmup/chihuahua.jpg,dogs,graduated_high_school,English,male,NA,dogs,NA,3,1566834651968,1,NA,This is a,1,These are both,NA,doberman,warmup2
438,NA,images/tree-parade.png,8,NA,NA,That,No,2,trees,mary,NA,yes,This one is also in the landscape.,predicative,You say to your friend:,35,redwood,NA,NA,NA,graduated_high_school,English,male,NA,NA,You see the following items in a landscape.,1,1566834651968,NA,images/sequoia.png,NA,1,is big.,big,NA,main2
438,NA,images/flower-parade2.png,8,NA,NA,That,No,2,flowers,mary,NA,yes,This one is also in the collection.,predicative,You say to your friend:,35,flower,NA,NA,NA,graduated_high_school,English,male,NA,NA,You see a collection of plants.,2,1566834651968,NA,images/sunflower.png,NA,1,is big.,big,NA,main2
438,NA,images/dog-parade.png,8,NA,NA,That,No,2,dogs,mary,NA,yes,This one is also in the parade.,predicative,You say to your friend:,35,dog,NA,NA,NA,graduated_high_school,English,male,NA,NA,You see a parade of animals.,3,1566834651968,NA,images/doberman.png,NA,1,is big.,big,NA,main2
437,tree,NA,8,warmup/bonsai.jpg,redwood|sequoia,This is a,no,2,trees,Patricia,bonsai,yes,Please label the pictures below.,NA,NA,30,NA,none,warmup/sequoia.jpg,trees,graduated_college,english,male,NA,trees,NA,1,1566834584094,1,NA,This is a,1,These are both,NA,tree,warmup1
437,tree,NA,8,warmup/bonsai.jpg,redwood|sequoia,This is a,no,2,trees,Patricia,bonsai,yes,Please label the pictures below.,NA,NA,30,NA,none,warmup/sequoia.jpg,trees,graduated_college,english,male,NA,trees,NA,1,1566834584094,2,NA,This is a,1,These are both,NA,plant,warmup1
437,tree,NA,8,warmup/bonsai.jpg,redwood|sequoia,This is a,no,2,trees,Patricia,bonsai,yes,Please label the pictures below.,NA,NA,30,NA,none,warmup/sequoia.jpg,trees,graduated_college,english,male,NA,trees,NA,1,1566834584094,3,NA,This is a,1,These are both,NA,plant,warmup1
437,tree,NA,8,warmup/bonsai.jpg,redwood|sequoia,This is a,no,2,trees,Patricia,bonsai,yes,Please label the pictures below.,NA,NA,30,NA,none,warmup/sequoia.jpg,NA,graduated_college,english,male,NA,trees,NA,1,1566834584094,4,NA,This is a,1,These are both,NA,plant,warmup1
437,NA,NA,8,warmup/bonsai.jpg,redwood|sequoia,This is a,no,2,trees,Patricia,bonsai,yes,Please label the pictures below.,NA,NA,30,NA,none,warmup/sequoia.jpg,trees,graduated_college,english,male,NA,trees,NA,1,1566834584094,5,NA,This is a,1,These are both,NA,NA,warmup1
437,NA,NA,8,warmup/bonsai.jpg,redwood|sequoia,This is a,no,2,trees,Patricia,bonsai,yes,Please label the pictures below.,NA,NA,30,NA,none,warmup/sequoia.jpg,trees,graduated_college,english,male,NA,trees,NA,1,1566834584094,6,NA,This is a,1,These are both,NA,NA,warmup1
437,redwood,NA,8,warmup/bonsai.jpg,redwood|sequoia,This is a,no,2,trees,Patricia,bonsai,yes,Please label the pictures below.,NA,NA,30,NA,none,warmup/sequoia.jpg,trees,graduated_college,english,male,NA,trees,NA,1,1566834584094,7,NA,This is a,1,These are both,NA,bonsai,warmup1
437,hummingbird,NA,8,warmup/eagle.jpg,hummingbird,This is a,no,2,birds,Patricia,eagle,yes,Please label the pictures below.,NA,NA,30,NA,none,warmup/colibri.jpg,birds,graduated_college,english,male,NA,birds,NA,2,1566834584094,1,NA,This is an,1,These are both,NA,eagle,warmup1
437,lilly,NA,8,warmup/peony.png,daisy,This is a,no,2,flowers,Patricia,peony,yes,Please label the pictures below.,NA,NA,30,NA,none,warmup/daisy.png,flowers,graduated_college,english,male,NA,flowers,NA,3,1566834584094,1,NA,This is a,1,These are both,NA,rose,warmup1
437,daisy,NA,8,warmup/peony.png,daisy,This is a,no,2,flowers,Patricia,peony,yes,Please label the pictures below.,NA,NA,30,NA,none,warmup/daisy.png,flowers,graduated_college,english,male,NA,flowers,NA,3,1566834584094,2,NA,This is a,1,These are both,NA,rose,warmup1
437,daisy,NA,8,warmup/peony.png,daisy,This is a,no,2,flowers,Patricia,peony,yes,Please label the pictures below.,NA,NA,30,NA,none,warmup/daisy.png,flowers,graduated_college,english,male,NA,flowers,NA,3,1566834584094,3,NA,This is a,1,These are both,NA,peony,warmup1
437,NA,images/bird-parade2.png,8,NA,NA,That,no,2,birds,Patricia,NA,yes,This one is also in the parade.,predicative,You say to your friend:,30,eagle,none,NA,NA,graduated_college,english,male,NA,NA,You see a parade of animals.,1,1566834584094,NA,images/eagle.png,NA,1,is big.,big,NA,main1
437,NA,images/flower-parade.png,8,NA,NA,That,no,2,flowers,Patricia,NA,yes,This one is also in the collection.,predicative,You say to your friend:,30,daisy,none,NA,NA,graduated_college,english,male,NA,NA,You see a collection of plants.,2,1566834584094,NA,images/daisy.png,NA,1,is small.,small,NA,main1
437,NA,images/tree-parade.png,8,NA,NA,That,no,2,trees,Patricia,NA,yes,This one is also in the landscape.,predicative,You say to your friend:,30,bonsai,none,NA,NA,graduated_college,english,male,NA,NA,You see the following items in a landscape.,3,1566834584094,NA,images/bonsai.png,NA,1,is small.,small,NA,main1
437,pug,NA,8,warmup/great-dane.jpg,pug,This is a,no,2,dogs,Patricia,great dane,yes,Please label the pictures below.,NA,NA,30,NA,none,warmup/pug.jpg,dogs,graduated_college,english,male,NA,dogs,NA,1,1566834584094,1,NA,This is a,1,These are both,NA,greyhound,warmup2
437,pug,NA,8,warmup/great-dane.jpg,pug,This is a,no,2,dogs,Patricia,great dane,yes,Please label the pictures below.,NA,NA,30,NA,none,warmup/pug.jpg,dogs,graduated_college,english,male,NA,dogs,NA,1,1566834584094,2,NA,This is a,1,These are both,NA,great dane,warmup2
437,swan,NA,8,warmup/canary.jpg,swan,This is a,no,2,birds,Patricia,canary,yes,Please label the pictures below.,NA,NA,30,NA,none,warmup/swan.jpg,birds,graduated_college,english,male,NA,birds,NA,2,1566834584094,1,NA,This is a,1,These are both,NA,parrot,warmup2
437,swan,NA,8,warmup/canary.jpg,swan,This is a,no,2,birds,Patricia,canary,yes,Please label the pictures below.,NA,NA,30,NA,none,warmup/swan.jpg,birds,graduated_college,english,male,NA,birds,NA,2,1566834584094,2,NA,This is a,1,These are both,NA,canary,warmup2
437,yorkie,NA,8,warmup/doberman.png,chihuahua,This is a,no,2,dogs,Patricia,doberman,yes,Please label the pictures below.,NA,NA,30,NA,none,warmup/chihuahua.jpg,dogs,graduated_college,english,male,NA,dogs,NA,3,1566834584094,1,NA,This is a,1,These are both,NA,dobermin,warmup2
437,chihuahua,NA,8,warmup/doberman.png,chihuahua,This is a,no,2,dogs,Patricia,doberman,yes,Please label the pictures below.,NA,NA,30,NA,none,warmup/chihuahua.jpg,dogs,graduated_college,english,male,NA,dogs,NA,3,1566834584094,2,NA,This is a,1,These are both,NA,doberman,warmup2
437,NA,images/dog-parade2.png,8,NA,NA,That,no,2,dogs,Patricia,NA,yes,This one is also in the parade.,predicative,You say to your friend:,30,great dane,none,NA,NA,graduated_college,english,male,NA,NA,You see a parade of animals.,1,1566834584094,NA,images/great-dane.png,NA,1,is big.,big,NA,main2
437,NA,images/dog-parade.png,8,NA,NA,That,no,2,dogs,Patricia,NA,yes,This one is also in the parade.,predicative,You say to your friend:,30,doberman,none,NA,NA,graduated_college,english,male,NA,NA,You see a parade of animals.,2,1566834584094,NA,images/doberman.png,NA,1,is big.,big,NA,main2
437,NA,images/bird-parade3.png,8,NA,NA,That,no,2,birds,Patricia,NA,yes,This one is also in the parade.,predicative,You say to your friend:,30,canary,none,NA,NA,graduated_college,english,male,NA,NA,You see a parade of animals.,3,1566834584094,NA,images/canary.png,NA,1,is small.,small,NA,main2
436,swordfish,NA,8,warmup/goldfish.png,swordfish,This is a,No issues that I saw.,1,fish,elizabeth,goldfish,yes,Please label the pictures below.,NA,NA,48,NA,"May want to use simpler objects or more easy to recognize ones. Not everyone will immediately be familiar with a Great Dane, especially a cartoon of one.",warmup/swordfish.jpg,fish,graduated_college,English,male,NA,fish,NA,1,1566833997757,1,NA,This is a,1,These are both,NA,goldfish,warmup1
436,puppy,NA,8,warmup/doberman.png,chihuahua,This is a,No issues that I saw.,1,dogs,elizabeth,doberman,yes,Please label the pictures below.,NA,NA,48,NA,"May want to use simpler objects or more easy to recognize ones. Not everyone will immediately be familiar with a Great Dane, especially a cartoon of one.",warmup/chihuahua.jpg,animals,graduated_college,English,male,NA,dogs,NA,2,1566833997757,1,NA,This is a,1,These are both,NA,dog,warmup1
436,chihuahua,NA,8,warmup/doberman.png,chihuahua,This is a,No issues that I saw.,1,dogs,elizabeth,doberman,yes,Please label the pictures below.,NA,NA,48,NA,"May want to use simpler objects or more easy to recognize ones. Not everyone will immediately be familiar with a Great Dane, especially a cartoon of one.",warmup/chihuahua.jpg,dogs,graduated_college,English,male,NA,dogs,NA,2,1566833997757,2,NA,This is a,1,These are both,NA,doberman,warmup1
436,daisy,NA,8,warmup/peony.png,daisy,This is a,No issues that I saw.,1,flowers,elizabeth,peony,yes,Please label the pictures below.,NA,NA,48,NA,"May want to use simpler objects or more easy to recognize ones. Not everyone will immediately be familiar with a Great Dane, especially a cartoon of one.",warmup/daisy.png,flowers,graduated_college,English,male,NA,flowers,NA,3,1566833997757,1,NA,This is a,1,These are both,NA,rose,warmup1
436,daisy,NA,8,warmup/peony.png,daisy,This is a,No issues that I saw.,1,flowers,elizabeth,peony,yes,Please label the pictures below.,NA,NA,48,NA,"May want to use simpler objects or more easy to recognize ones. Not everyone will immediately be familiar with a Great Dane, especially a cartoon of one.",warmup/daisy.png,flowers,graduated_college,English,male,NA,flowers,NA,3,1566833997757,2,NA,This is a,1,These are both,NA,peony,warmup1
436,NA,images/fish-parade.png,8,NA,NA,That,No issues that I saw.,1,fish,elizabeth,NA,yes,This one is also in the parade.,predicative,You say to your friend:,48,swordfish,"May want to use simpler objects or more easy to recognize ones. Not everyone will immediately be familiar with a Great Dane, especially a cartoon of one.",NA,NA,graduated_college,English,male,NA,NA,You see a parade of animals.,1,1566833997757,NA,images/swordfish.png,NA,1,is big.,big,NA,main1
436,NA,images/dog-parade.png,8,NA,NA,That,No issues that I saw.,1,dogs,elizabeth,NA,yes,This one is also in the parade.,predicative,You say to your friend:,48,chihuahua,"May want to use simpler objects or more easy to recognize ones. Not everyone will immediately be familiar with a Great Dane, especially a cartoon of one.",NA,NA,graduated_college,English,male,NA,NA,You see a parade of animals.,2,1566833997757,NA,images/chihuahua.png,NA,1,is small.,small,NA,main1
436,NA,images/flower-parade.png,8,NA,NA,That,No issues that I saw.,1,flowers,elizabeth,NA,yes,This one is also in the collection.,predicative,You say to your friend:,48,daisy,"May want to use simpler objects or more easy to recognize ones. Not everyone will immediately be familiar with a Great Dane, especially a cartoon of one.",NA,NA,graduated_college,English,male,NA,NA,You see a collection of plants.,3,1566833997757,NA,images/daisy.png,NA,1,is small.,small,NA,main1
436,hummingbird,NA,8,warmup/eagle.jpg,hummingbird,This is a,No issues that I saw.,1,birds,elizabeth,eagle,yes,Please label the pictures below.,NA,NA,48,NA,"May want to use simpler objects or more easy to recognize ones. Not everyone will immediately be familiar with a Great Dane, especially a cartoon of one.",warmup/colibri.jpg,birds,graduated_college,English,male,NA,birds,NA,1,1566833997757,1,NA,This is an,1,These are both,NA,eagle,warmup2
436,pug,NA,8,warmup/great-dane.jpg,pug,This is a,No issues that I saw.,1,dogs,elizabeth,great dane,yes,Please label the pictures below.,NA,NA,48,NA,"May want to use simpler objects or more easy to recognize ones. Not everyone will immediately be familiar with a Great Dane, especially a cartoon of one.",warmup/pug.jpg,dogs,graduated_college,English,male,NA,dogs,NA,2,1566833997757,1,NA,This is a,1,These are both,NA,great dane,warmup2
436,dandelion,NA,8,warmup/sunflower.png,dandelion,This is a,No issues that I saw.,1,flowers,elizabeth,sunflower,yes,Please label the pictures below.,NA,NA,48,NA,"May want to use simpler objects or more easy to recognize ones. Not everyone will immediately be familiar with a Great Dane, especially a cartoon of one.",warmup/dandelion.jpg,flowers,graduated_college,English,male,NA,flowers,NA,3,1566833997757,1,NA,This is a,1,These are both,NA,sunflower,warmup2
436,NA,images/bird-parade2.png,8,NA,NA,That,No issues that I saw.,1,birds,elizabeth,NA,yes,This one is also in the parade.,predicative,You say to your friend:,48,eagle,"May want to use simpler objects or more easy to recognize ones. Not everyone will immediately be familiar with a Great Dane, especially a cartoon of one.",NA,NA,graduated_college,English,male,NA,NA,You see a parade of animals.,1,1566833997757,NA,images/eagle.png,NA,1,is big.,big,NA,main2
436,NA,images/dog-parade2.png,8,NA,NA,That,No issues that I saw.,1,dogs,elizabeth,NA,yes,This one is also in the parade.,predicative,You say to your friend:,48,pug,"May want to use simpler objects or more easy to recognize ones. Not everyone will immediately be familiar with a Great Dane, especially a cartoon of one.",NA,NA,graduated_college,English,male,NA,NA,You see a parade of animals.,2,1566833997757,NA,images/pug.png,NA,1,is small.,small,NA,main2
436,NA,images/flower-parade2.png,8,NA,NA,That,No issues that I saw.,1,flowers,elizabeth,NA,yes,This one is also in the collection.,predicative,You say to your friend:,48,sunflower,"May want to use simpler objects or more easy to recognize ones. Not everyone will immediately be familiar with a Great Dane, especially a cartoon of one.",NA,NA,graduated_college,English,male,NA,NA,You see a collection of plants.,3,1566833997757,NA,images/sunflower.png,NA,1,is big.,big,NA,main2
435,small dog.,NA,8,warmup/doberman.png,chihuahua,This is a,Clown fish is two words.,1,dogs,jennifer,doberman,NA,Please label the pictures below.,NA,NA,32,NA,none,warmup/chihuahua.jpg,dogs.,some_college,English,female,NA,dogs,NA,1,1566833469047,1,NA,This is a,1.25,These are both,NA,big dog.,warmup1
435,small dog,NA,8,warmup/doberman.png,chihuahua,This is a,Clown fish is two words.,1,dogs,jennifer,doberman,NA,Please label the pictures below.,NA,NA,32,NA,none,warmup/chihuahua.jpg,dogs,some_college,English,female,NA,dogs,NA,1,1566833469047,2,NA,This is a,1.25,These are both,NA,big dog,warmup1
435,chihuahua,NA,8,warmup/doberman.png,chihuahua,This is a,Clown fish is two words.,1,dogs,jennifer,doberman,NA,Please label the pictures below.,NA,NA,32,NA,none,warmup/chihuahua.jpg,dogs,some_college,English,female,NA,dogs,NA,1,1566833469047,3,NA,This is a,1.25,These are both,NA,doberman,warmup1
435,oak,NA,8,warmup/bonsai.jpg,redwood|sequoia,This is a,Clown fish is two words.,1,trees,jennifer,bonsai,NA,Please label the pictures below.,NA,NA,32,NA,none,warmup/sequoia.jpg,trees,some_college,English,female,NA,trees,NA,2,1566833469047,1,NA,This is a,1.25,These are both,NA,bonsai,warmup1
435,redwood,NA,8,warmup/bonsai.jpg,redwood|sequoia,This is a,Clown fish is two words.,1,trees,jennifer,bonsai,NA,Please label the pictures below.,NA,NA,32,NA,none,warmup/sequoia.jpg,trees,some_college,English,female,NA,trees,NA,2,1566833469047,2,NA,This is a,1.25,These are both,NA,bonsai,warmup1
435,blue gill,NA,8,warmup/clownfish.jpg,tuna,This is a,Clown fish is two words.,1,fish,jennifer,clownfish,NA,Please label the pictures below.,NA,NA,32,NA,none,warmup/tuna.jpg,fish,some_college,English,female,NA,fish,NA,3,1566833469047,1,NA,This is a,1.25,These are both,NA,clown fish,warmup1
435,tuna,NA,8,warmup/clownfish.jpg,tuna,This is a,Clown fish is two words.,1,fish,jennifer,clownfish,NA,Please label the pictures below.,NA,NA,32,NA,none,warmup/tuna.jpg,fish,some_college,English,female,NA,fish,NA,3,1566833469047,2,NA,This is a,1.25,These are both,NA,clownfish,warmup1
435,NA,images/tree-parade.png,8,NA,NA,That,Clown fish is two words.,1,trees,jennifer,NA,NA,This one is also in the landscape.,predicative,You say to your friend:,32,tree,none,NA,NA,some_college,English,female,NA,NA,You see the following items in a landscape.,1,1566833469047,NA,images/sequoia.png,NA,1.25,is big.,big,NA,main1
435,NA,images/fish-parade2.png,8,NA,NA,That,Clown fish is two words.,1,fish,jennifer,NA,NA,This one is also in the parade.,predicative,You say to your friend:,32,clownfish,none,NA,NA,some_college,English,female,NA,NA,You see a parade of animals.,2,1566833469047,NA,images/clownfish.png,NA,1.25,is small.,small,NA,main1
435,NA,images/dog-parade.png,8,NA,NA,That,Clown fish is two words.,1,dogs,jennifer,NA,NA,This one is also in the parade.,predicative,You say to your friend:,32,chihuahua,none,NA,NA,some_college,English,female,NA,NA,You see a parade of animals.,3,1566833469047,NA,images/chihuahua.png,NA,1.25,is small.,small,NA,main1
435,daisy,NA,8,warmup/peony.png,daisy,This is a,Clown fish is two words.,1,flowers,jennifer,peony,NA,Please label the pictures below.,NA,NA,32,NA,none,warmup/daisy.png,flowers,some_college,English,female,NA,flowers,NA,1,1566833469047,1,NA,This is a,1.25,These are both,NA,peony,warmup2
435,swan,NA,8,warmup/canary.jpg,swan,This is a,Clown fish is two words.,1,birds,jennifer,canary,NA,Please label the pictures below.,NA,NA,32,NA,none,warmup/swan.jpg,birds,some_college,English,female,NA,birds,NA,2,1566833469047,1,NA,This is a,1.25,These are both,NA,goldfinch,warmup2
435,swan,NA,8,warmup/canary.jpg,swan,This is a,Clown fish is two words.,1,birds,jennifer,canary,NA,Please label the pictures below.,NA,NA,32,NA,none,warmup/swan.jpg,birds,some_college,English,female,NA,birds,NA,2,1566833469047,2,NA,This is a,1.25,These are both,NA,canary,warmup2
435,humming bird,NA,8,warmup/eagle.jpg,hummingbird,This is a,Clown fish is two words.,1,birds,jennifer,eagle,NA,Please label the pictures below.,NA,NA,32,NA,none,warmup/colibri.jpg,birds,some_college,English,female,NA,birds,NA,3,1566833469047,1,NA,This is an,1.25,These are both,NA,eagle,warmup2
435,hummingbird,NA,8,warmup/eagle.jpg,hummingbird,This is a,Clown fish is two words.,1,birds,jennifer,eagle,NA,Please label the pictures below.,NA,NA,32,NA,none,warmup/colibri.jpg,birds,some_college,English,female,NA,birds,NA,3,1566833469047,2,NA,This is an,1.25,These are both,NA,eagle,warmup2
435,NA,images/flower-parade.png,8,NA,NA,That,Clown fish is two words.,1,flowers,jennifer,NA,NA,This one is also in the collection.,predicative,You say to your friend:,32,peony,none,NA,NA,some_college,English,female,NA,NA,You see a collection of plants.,1,1566833469047,NA,images/peony.png,NA,1.25,is big.,big,NA,main2
435,NA,images/bird-parade2.png,8,NA,NA,That,Clown fish is two words.,1,birds,jennifer,NA,NA,This one is also in the parade.,predicative,You say to your friend:,32,eagle,none,NA,NA,some_college,English,female,NA,NA,You see a parade of animals.,2,1566833469047,NA,images/eagle.png,NA,1.25,is big.,big,NA,main2
435,NA,images/bird-parade3.png,8,NA,NA,That,Clown fish is two words.,1,birds,jennifer,NA,NA,This one is also in the parade.,predicative,You say to your friend:,32,canary,none,NA,NA,some_college,English,female,NA,NA,You see a parade of animals.,3,1566833469047,NA,images/canary.png,NA,1.25,is small.,small,NA,main2
434,chihuahua,NA,8,warmup/doberman.png,chihuahua,This is a,NA,2,dogs,Linda,doberman,yes,Please label the pictures below.,NA,NA,28,NA,NA,warmup/chihuahua.jpg,dogs,some_college,English,male,NA,dogs,NA,1,1566833659311,1,NA,This is a,1,These are both,NA,doberman,warmup1
434,daisy,NA,8,warmup/peony.png,daisy,This is a,NA,2,flowers,Linda,peony,yes,Please label the pictures below.,NA,NA,28,NA,NA,warmup/daisy.png,flowers,some_college,English,male,NA,flowers,NA,2,1566833659311,1,NA,This is a,1,These are both,NA,rose,warmup1
434,daisy,NA,8,warmup/peony.png,daisy,This is a,NA,2,flowers,Linda,peony,yes,Please label the pictures below.,NA,NA,28,NA,NA,warmup/daisy.png,flowers,some_college,English,male,NA,flowers,NA,2,1566833659311,2,NA,This is a,1,These are both,NA,peony,warmup1
434,swan,NA,8,warmup/canary.jpg,swan,This is a,NA,2,birds,Linda,canary,yes,Please label the pictures below.,NA,NA,28,NA,NA,warmup/swan.jpg,birds,some_college,English,male,NA,birds,NA,3,1566833659311,1,NA,This is a,1,These are both,NA,canary,warmup1
434,NA,images/flower-parade.png,8,NA,NA,That,NA,2,flowers,Linda,NA,yes,This one is also in the collection.,predicative,You say to your friend:,28,flower,NA,NA,NA,some_college,English,male,NA,NA,You see a collection of plants.,1,1566833659311,NA,images/daisy.png,NA,1,is small.,small,NA,main1
434,NA,images/bird-parade3.png,8,NA,NA,That,NA,2,birds,Linda,NA,yes,This one is also in the parade.,predicative,You say to your friend:,28,swan,NA,NA,NA,some_college,English,male,NA,NA,You see a parade of animals.,2,1566833659311,NA,images/swan.png,NA,1,is big.,big,NA,main1
434,NA,images/dog-parade.png,8,NA,NA,That,NA,2,dogs,Linda,NA,yes,This one is also in the parade.,predicative,You say to your friend:,28,dog,NA,NA,NA,some_college,English,male,NA,NA,You see a parade of animals.,3,1566833659311,NA,images/chihuahua.png,NA,1,is small.,small,NA,main1
434,redwood,NA,8,warmup/bonsai.jpg,redwood|sequoia,This is a,NA,2,trees,Linda,bonsai,yes,Please label the pictures below.,NA,NA,28,NA,NA,warmup/sequoia.jpg,trees,some_college,English,male,NA,trees,NA,1,1566833659311,1,NA,This is a,1,These are both,NA,bonsai,warmup2
434,pug,NA,8,warmup/great-dane.jpg,pug,This is a,NA,2,dogs,Linda,great dane,yes,Please label the pictures below.,NA,NA,28,NA,NA,warmup/pug.jpg,dogs,some_college,English,male,NA,dogs,NA,2,1566833659311,1,NA,This is a,1,These are both,NA,labrador,warmup2
434,pug,NA,8,warmup/great-dane.jpg,pug,This is a,NA,2,dogs,Linda,great dane,yes,Please label the pictures below.,NA,NA,28,NA,NA,warmup/pug.jpg,dogs,some_college,English,male,NA,dogs,NA,2,1566833659311,2,NA,This is a,1,These are both,NA,great dane,warmup2
434,swordfish,NA,8,warmup/goldfish.png,swordfish,This is a,NA,2,fish,Linda,goldfish,yes,Please label the pictures below.,NA,NA,28,NA,NA,warmup/swordfish.jpg,fish,some_college,English,male,NA,fish,NA,3,1566833659311,1,NA,This is a,1,These are both,NA,goldfish,warmup2
434,NA,images/fish-parade.png,8,NA,NA,That,NA,2,fish,Linda,NA,yes,This one is also in the parade.,predicative,You say to your friend:,28,fish,NA,NA,NA,some_college,English,male,NA,NA,You see a parade of animals.,1,1566833659311,NA,images/swordfish.png,NA,1,is big.,big,NA,main2
434,NA,images/tree-parade.png,8,NA,NA,That,NA,2,trees,Linda,NA,yes,This one is also in the landscape.,predicative,You say to your friend:,28,tree,NA,NA,NA,some_college,English,male,NA,NA,You see the following items in a landscape.,2,1566833659311,NA,images/sequoia.png,NA,1,is big.,big,NA,main2
434,NA,images/dog-parade2.png,8,NA,NA,That,NA,2,dogs,Linda,NA,yes,This one is also in the parade.,predicative,You say to your friend:,28,dog,NA,NA,NA,some_college,English,male,NA,NA,You see a parade of animals.,3,1566833659311,NA,images/pug.png,NA,1,is small.,small,NA,main2
430,cuckoo,NA,8,warmup/eagle.jpg,hummingbird,This is a,no,2,birds,barbara,eagle,yes,Please label the pictures below.,NA,NA,28,NA,good,warmup/colibri.jpg,birds,higher_degree,english,male,NA,birds,NA,1,1566832636493,1,NA,This is an,10,These are both,NA,eagle,warmup1
430,cuckoo,NA,8,warmup/eagle.jpg,hummingbird,This is a,no,2,birds,barbara,eagle,yes,Please label the pictures below.,NA,NA,28,NA,good,warmup/colibri.jpg,birds,higher_degree,english,male,NA,birds,NA,1,1566832636493,2,NA,This is an,10,These are both,NA,eagle,warmup1
430,cuckoo,NA,8,warmup/eagle.jpg,hummingbird,This is a,no,2,birds,barbara,eagle,yes,Please label the pictures below.,NA,NA,28,NA,good,warmup/colibri.jpg,birds,higher_degree,english,male,NA,birds,NA,1,1566832636493,3,NA,This is an,10,These are both,NA,eagle,warmup1
430,cuckoo,NA,8,warmup/eagle.jpg,hummingbird,This is a,no,2,birds,barbara,eagle,yes,Please label the pictures below.,NA,NA,28,NA,good,warmup/colibri.jpg,birds,higher_degree,english,male,NA,birds,NA,1,1566832636493,4,NA,This is an,10,These are both,NA,eagle,warmup1
430,hummingbird,NA,8,warmup/eagle.jpg,hummingbird,This is a,no,2,birds,barbara,eagle,yes,Please label the pictures below.,NA,NA,28,NA,good,warmup/colibri.jpg,birds,higher_degree,english,male,NA,birds,NA,1,1566832636493,5,NA,This is an,10,These are both,NA,eagle,warmup1
430,shark,NA,8,warmup/goldfish.png,swordfish,This is a,no,2,fish,barbara,goldfish,yes,Please label the pictures below.,NA,NA,28,NA,good,warmup/swordfish.jpg,fish,higher_degree,english,male,NA,fish,NA,2,1566832636493,1,NA,This is a,10,These are both,NA,fish,warmup1
430,swordfish,NA,8,warmup/goldfish.png,swordfish,This is a,no,2,fish,barbara,goldfish,yes,Please label the pictures below.,NA,NA,28,NA,good,warmup/swordfish.jpg,fish,higher_degree,english,male,NA,fish,NA,2,1566832636493,2,NA,This is a,10,These are both,NA,goldfish,warmup1
430,rose,NA,8,warmup/sunflower.png,dandelion,This is a,no,2,flowers,barbara,sunflower,yes,Please label the pictures below.,NA,NA,28,NA,good,warmup/dandelion.jpg,flowers,higher_degree,english,male,NA,flowers,NA,3,1566832636493,1,NA,This is a,10,These are both,NA,sunflower,warmup1
430,dandelion,NA,8,warmup/sunflower.png,dandelion,This is a,no,2,flowers,barbara,sunflower,yes,Please label the pictures below.,NA,NA,28,NA,good,warmup/dandelion.jpg,flowers,higher_degree,english,male,NA,flowers,NA,3,1566832636493,2,NA,This is a,10,These are both,NA,sunflower,warmup1
430,NA,images/bird-parade2.png,8,NA,NA,That,no,2,birds,barbara,NA,yes,This one is also in the parade.,predicative,You say to your friend:,28,hummingbird,good,NA,NA,higher_degree,english,male,NA,NA,You see a parade of animals.,1,1566832636493,NA,images/hummingbird.png,NA,10,is small.,small,NA,main1
430,NA,images/fish-parade.png,8,NA,NA,That,no,2,fish,barbara,NA,yes,This one is also in the parade.,predicative,You say to your friend:,28,swordfish,good,NA,NA,higher_degree,english,male,NA,NA,You see a parade of animals.,2,1566832636493,NA,images/swordfish.png,NA,10,is big.,big,NA,main1
430,NA,images/flower-parade2.png,8,NA,NA,That,no,2,flowers,barbara,NA,yes,This one is also in the collection.,predicative,You say to your friend:,28,dandelion,good,NA,NA,higher_degree,english,male,NA,NA,You see a collection of plants.,3,1566832636493,NA,images/dandelion.png,NA,10,is small.,small,NA,main1
430,swan,NA,8,warmup/canary.jpg,swan,This is a,no,2,birds,barbara,canary,yes,Please label the pictures below.,NA,NA,28,NA,good,warmup/swan.jpg,birds,higher_degree,english,male,NA,birds,NA,1,1566832636493,1,NA,This is a,10,These are both,NA,parrot,warmup2
430,swan,NA,8,warmup/canary.jpg,swan,This is a,no,2,birds,barbara,canary,yes,Please label the pictures below.,NA,NA,28,NA,good,warmup/swan.jpg,birds,higher_degree,english,male,NA,birds,NA,1,1566832636493,2,NA,This is a,10,These are both,NA,canary,warmup2
430,rose,NA,8,warmup/peony.png,daisy,This is a,no,2,flowers,barbara,peony,yes,Please label the pictures below.,NA,NA,28,NA,good,warmup/daisy.png,fleoers,higher_degree,english,male,NA,flowers,NA,2,1566832636493,1,NA,This is a,10,These are both,NA,rose,warmup2
430,daisy,NA,8,warmup/peony.png,daisy,This is a,no,2,flowers,barbara,peony,yes,Please label the pictures below.,NA,NA,28,NA,good,warmup/daisy.png,flowers,higher_degree,english,male,NA,flowers,NA,2,1566832636493,2,NA,This is a,10,These are both,NA,peony,warmup2
430,tree,NA,8,warmup/bonsai.jpg,redwood|sequoia,This is a,no,2,trees,barbara,bonsai,yes,Please label the pictures below.,NA,NA,28,NA,good,warmup/sequoia.jpg,trees,higher_degree,english,male,NA,trees,NA,3,1566832636493,1,NA,This is a,10,These are both,NA,tree,warmup2
430,redwood,NA,8,warmup/bonsai.jpg,redwood|sequoia,This is a,no,2,trees,barbara,bonsai,yes,Please label the pictures below.,NA,NA,28,NA,good,warmup/sequoia.jpg,trees,higher_degree,english,male,NA,trees,NA,3,1566832636493,2,NA,This is a,10,These are both,NA,bonsai,warmup2
430,NA,images/bird-parade3.png,8,NA,NA,That,no,2,birds,barbara,NA,yes,This one is also in the parade.,predicative,You say to your friend:,28,swan,good,NA,NA,higher_degree,english,male,NA,NA,You see a parade of animals.,1,1566832636493,NA,images/swan.png,NA,10,is big.,big,NA,main2
430,NA,images/flower-parade.png,8,NA,NA,That,no,2,flowers,barbara,NA,yes,This one is also in the collection.,predicative,You say to your friend:,28,daisy,good,NA,NA,higher_degree,english,male,NA,NA,You see a collection of plants.,2,1566832636493,NA,images/daisy.png,NA,10,is small.,small,NA,main2
430,NA,images/tree-parade.png,8,NA,NA,That,no,2,trees,barbara,NA,yes,This one is also in the landscape.,predicative,You say to your friend:,28,redwood,good,NA,NA,higher_degree,english,male,NA,NA,You see the following items in a landscape.,3,1566832636493,NA,images/sequoia.png,NA,10,is big.,big,NA,main2
429,lily,NA,8,warmup/peony.png,daisy,This is a,NA,2,flowers,jessica,peony,NA,Please label the pictures below.,NA,NA,23,NA,NA,warmup/daisy.png,flowers,some_college,English,male,NA,flowers,NA,1,1566832758947,1,NA,This is a,1.5,These are both,NA,rose,warmup1
429,daisy,NA,8,warmup/peony.png,daisy,This is a,NA,2,flowers,jessica,peony,NA,Please label the pictures below.,NA,NA,23,NA,NA,warmup/daisy.png,flowers,some_college,English,male,NA,flowers,NA,1,1566832758947,2,NA,This is a,1.5,These are both,NA,peony,warmup1
429,swan,NA,8,warmup/canary.jpg,swan,This is a,NA,2,birds,jessica,canary,NA,Please label the pictures below.,NA,NA,23,NA,NA,warmup/swan.jpg,birds,some_college,English,male,NA,birds,NA,2,1566832758947,1,NA,This is a,1.5,These are both,NA,pigeon,warmup1
429,swan,NA,8,warmup/canary.jpg,swan,This is a,NA,2,birds,jessica,canary,NA,Please label the pictures below.,NA,NA,23,NA,NA,warmup/swan.jpg,birds,some_college,English,male,NA,birds,NA,2,1566832758947,2,NA,This is a,1.5,These are both,NA,canary,warmup1
429,goose,NA,8,warmup/sparrow.jpg,goose,This is a,NA,2,birds,jessica,sparrow,NA,Please label the pictures below.,NA,NA,23,NA,NA,warmup/goose.png,birds,some_college,English,male,NA,birds,NA,3,1566832758947,1,NA,This is a,1.5,These are both,NA,bird,warmup1
429,goose,NA,8,warmup/sparrow.jpg,goose,This is a,NA,2,birds,jessica,sparrow,NA,Please label the pictures below.,NA,NA,23,NA,NA,warmup/goose.png,birds,some_college,English,male,NA,birds,NA,3,1566832758947,2,NA,This is a,1.5,These are both,NA,sparrow,warmup1
429,NA,images/bird-parade.png,8,NA,NA,That,NA,2,birds,jessica,NA,NA,This one is also in the parade.,predicative,You say to your friend:,23,sparrow,NA,NA,NA,some_college,English,male,NA,NA,You see a parade of animals.,1,1566832758947,NA,images/sparrow.png,NA,1.5,is small.,small,NA,main1
429,NA,images/flower-parade.png,8,NA,NA,That,NA,2,flowers,jessica,NA,NA,This one is also in the collection.,predicative,You say to your friend:,23,peony,NA,NA,NA,some_college,English,male,NA,NA,You see a collection of plants.,2,1566832758947,NA,images/peony.png,NA,1.5,is big.,big,NA,main1
429,NA,images/bird-parade3.png,8,NA,NA,That,NA,2,birds,jessica,NA,NA,This one is also in the parade.,predicative,You say to your friend:,23,swan,NA,NA,NA,some_college,English,male,NA,NA,You see a parade of animals.,3,1566832758947,NA,images/swan.png,NA,1.5,is big.,big,NA,main1
429,pug,NA,8,warmup/great-dane.jpg,pug,This is a,NA,2,dogs,jessica,great dane,NA,Please label the pictures below.,NA,NA,23,NA,NA,warmup/pug.jpg,dogs,some_college,English,male,NA,dogs,NA,1,1566832758947,1,NA,This is a,1.5,These are both,NA,doberman,warmup2
429,pug,NA,8,warmup/great-dane.jpg,pug,This is a,NA,2,dogs,jessica,great dane,NA,Please label the pictures below.,NA,NA,23,NA,NA,warmup/pug.jpg,dogs,some_college,English,male,NA,dogs,NA,1,1566832758947,2,NA,This is a,1.5,These are both,NA,great dane,warmup2
429,lily,NA,8,warmup/sunflower.png,dandelion,This is a,NA,2,flowers,jessica,sunflower,NA,Please label the pictures below.,NA,NA,23,NA,NA,warmup/dandelion.jpg,flowers,some_college,English,male,NA,flowers,NA,2,1566832758947,1,NA,This is a,1.5,These are both,NA,sunflower,warmup2
429,dandelion,NA,8,warmup/sunflower.png,dandelion,This is a,NA,2,flowers,jessica,sunflower,NA,Please label the pictures below.,NA,NA,23,NA,NA,warmup/dandelion.jpg,flowers,some_college,English,male,NA,flowers,NA,2,1566832758947,2,NA,This is a,1.5,These are both,NA,sunflower,warmup2
429,tuna,NA,8,warmup/clownfish.jpg,tuna,This is a,NA,2,fish,jessica,clownfish,NA,Please label the pictures below.,NA,NA,23,NA,NA,warmup/tuna.jpg,fish,some_college,English,male,NA,fish,NA,3,1566832758947,1,NA,This is a,1.5,These are both,NA,clownfish,warmup2
429,NA,images/flower-parade2.png,8,NA,NA,That,NA,2,flowers,jessica,NA,NA,This one is also in the collection.,predicative,You say to your friend:,23,dandelion,NA,NA,NA,some_college,English,male,NA,NA,You see a collection of plants.,1,1566832758947,NA,images/dandelion.png,NA,1.5,is small.,small,NA,main2
429,NA,images/dog-parade2.png,8,NA,NA,That,NA,2,dogs,jessica,NA,NA,This one is also in the parade.,predicative,You say to your friend:,23,pug,NA,NA,NA,some_college,English,male,NA,NA,You see a parade of animals.,2,1566832758947,NA,images/pug.png,NA,1.5,is small.,small,NA,main2
429,NA,images/fish-parade2.png,8,NA,NA,That,NA,2,fish,jessica,NA,NA,This one is also in the parade.,predicative,You say to your friend:,23,tuna,NA,NA,NA,some_college,English,male,NA,NA,You see a parade of animals.,3,1566832758947,NA,images/tuna.png,NA,1.5,is big.,big,NA,main2
426,swordfish,NA,8,warmup/goldfish.png,swordfish,This is a,NA,1,fish,Jennifer,goldfish,yes,Please label the pictures below.,NA,NA,29,NA,NA,warmup/swordfish.jpg,fish,some_college,English,female,NA,fish,NA,1,1566832449535,1,NA,This is a,1,These are both,NA,goldfish,warmup1
426,hummingbird,NA,8,warmup/eagle.jpg,hummingbird,This is a,NA,1,birds,Jennifer,eagle,yes,Please label the pictures below.,NA,NA,29,NA,NA,warmup/colibri.jpg,birds,some_college,English,female,NA,birds,NA,2,1566832449535,1,NA,This is an,1,These are both,NA,eagle,warmup1
426,goose,NA,8,warmup/sparrow.jpg,goose,This is a,NA,1,birds,Jennifer,sparrow,yes,Please label the pictures below.,NA,NA,29,NA,NA,warmup/goose.png,birds,some_college,English,female,NA,birds,NA,3,1566832449535,1,NA,This is a,1,These are both,NA,finch,warmup1
426,goose,NA,8,warmup/sparrow.jpg,goose,This is a,NA,1,birds,Jennifer,sparrow,yes,Please label the pictures below.,NA,NA,29,NA,NA,warmup/goose.png,birds,some_college,English,female,NA,birds,NA,3,1566832449535,2,NA,This is a,1,These are both,NA,sparrow,warmup1
426,NA,images/fish-parade.png,8,NA,NA,That,NA,1,fish,Jennifer,NA,yes,This one is also in the parade.,predicative,You say to your friend:,29,swordfish,NA,NA,NA,some_college,English,female,NA,NA,You see a parade of animals.,1,1566832449535,NA,images/swordfish.png,NA,1,is big.,big,NA,main1
426,NA,images/bird-parade.png,8,NA,NA,That,NA,1,birds,Jennifer,NA,yes,This one is also in the parade.,predicative,You say to your friend:,29,sparrow,NA,NA,NA,some_college,English,female,NA,NA,You see a parade of animals.,2,1566832449535,NA,images/sparrow.png,NA,1,is small.,small,NA,main1
426,NA,images/bird-parade2.png,8,NA,NA,That,NA,1,birds,Jennifer,NA,yes,This one is also in the parade.,predicative,You say to your friend:,29,hummingbird,NA,NA,NA,some_college,English,female,NA,NA,You see a parade of animals.,3,1566832449535,NA,images/hummingbird.png,NA,1,is small.,small,NA,main1
426,bass,NA,8,warmup/clownfish.jpg,tuna,This is a,NA,1,fish,Jennifer,clownfish,yes,Please label the pictures below.,NA,NA,29,NA,NA,warmup/tuna.jpg,fish,some_college,English,female,NA,fish,NA,1,1566832449535,1,NA,This is a,1,These are both,NA,clown fish,warmup2
426,tuna,NA,8,warmup/clownfish.jpg,tuna,This is a,NA,1,fish,Jennifer,clownfish,yes,Please label the pictures below.,NA,NA,29,NA,NA,warmup/tuna.jpg,fish,some_college,English,female,NA,fish,NA,1,1566832449535,2,NA,This is a,1,These are both,NA,clownfish,warmup2
426,chiuaua,NA,8,warmup/doberman.png,chihuahua,This is a,NA,1,dogs,Jennifer,doberman,yes,Please label the pictures below.,NA,NA,29,NA,NA,warmup/chihuahua.jpg,dogs,some_college,English,female,NA,dogs,NA,2,1566832449535,1,NA,This is a,1,These are both,NA,rottweiler,warmup2
426,chihuahua,NA,8,warmup/doberman.png,chihuahua,This is a,NA,1,dogs,Jennifer,doberman,yes,Please label the pictures below.,NA,NA,29,NA,NA,warmup/chihuahua.jpg,dogs,some_college,English,female,NA,dogs,NA,2,1566832449535,2,NA,This is a,1,These are both,NA,doberman,warmup2
426,tree,NA,8,warmup/bonsai.jpg,redwood|sequoia,This is a,NA,1,trees,Jennifer,bonsai,yes,Please label the pictures below.,NA,NA,29,NA,NA,warmup/sequoia.jpg,trees,some_college,English,female,NA,trees,NA,3,1566832449535,1,NA,This is a,1,These are both,NA,bush,warmup2
426,redwood,NA,8,warmup/bonsai.jpg,redwood|sequoia,This is a,NA,1,trees,Jennifer,bonsai,yes,Please label the pictures below.,NA,NA,29,NA,NA,warmup/sequoia.jpg,trees,some_college,English,female,NA,trees,NA,3,1566832449535,2,NA,This is a,1,These are both,NA,bonsai,warmup2
426,NA,images/tree-parade.png,8,NA,NA,That,NA,1,trees,Jennifer,NA,yes,This one is also in the landscape.,predicative,You say to your friend:,29,redwood,NA,NA,NA,some_college,English,female,NA,NA,You see the following items in a landscape.,1,1566832449535,NA,images/sequoia.png,NA,1,is big.,big,NA,main2
426,NA,images/fish-parade2.png,8,NA,NA,That,NA,1,fish,Jennifer,NA,yes,This one is also in the parade.,predicative,You say to your friend:,29,tuna,NA,NA,NA,some_college,English,female,NA,NA,You see a parade of animals.,2,1566832449535,NA,images/tuna.png,NA,1,is big.,big,NA,main2
426,NA,images/dog-parade.png,8,NA,NA,That,NA,1,dogs,Jennifer,NA,yes,This one is also in the parade.,predicative,You say to your friend:,29,chiuaua,NA,NA,NA,some_college,English,female,NA,NA,You see a parade of animals.,3,1566832449535,NA,images/chihuahua.png,NA,1,is small.,small,NA,main2
425,pug,NA,8,warmup/great-dane.jpg,pug,This is a,n/a,1,dogs,patricia,great dane,yes,Please label the pictures below.,NA,NA,38,NA,n/a,warmup/pug.jpg,dogs,graduated_college,English,female,NA,dogs,NA,1,1566832372418,1,NA,This is a,1,These are both,NA,great dane,warmup1
425,large fish,NA,8,warmup/clownfish.jpg,tuna,This is a,n/a,1,fish,patricia,clownfish,yes,Please label the pictures below.,NA,NA,38,NA,n/a,warmup/tuna.jpg,fish,graduated_college,English,female,NA,fish,NA,2,1566832372418,1,NA,This is a,1,These are both,NA,small fish,warmup1
425,tuna,NA,8,warmup/clownfish.jpg,tuna,This is a,n/a,1,fish,patricia,clownfish,yes,Please label the pictures below.,NA,NA,38,NA,n/a,warmup/tuna.jpg,fish,graduated_college,English,female,NA,fish,NA,2,1566832372418,2,NA,This is a,1,These are both,NA,clownfish,warmup1
425,chihuaha,NA,8,warmup/doberman.png,chihuahua,This is a,n/a,1,dogs,patricia,doberman,yes,Please label the pictures below.,NA,NA,38,NA,n/a,warmup/chihuahua.jpg,dogs,graduated_college,English,female,NA,dogs,NA,3,1566832372418,1,NA,This is a,1,These are both,NA,great dane,warmup1
425,chihuahua,NA,8,warmup/doberman.png,chihuahua,This is a,n/a,1,dogs,patricia,doberman,yes,Please label the pictures below.,NA,NA,38,NA,n/a,warmup/chihuahua.jpg,dogs,graduated_college,English,female,NA,dogs,NA,3,1566832372418,2,NA,This is a,1,These are both,NA,doberman,warmup1
425,NA,images/dog-parade.png,8,NA,NA,That,n/a,1,dogs,patricia,NA,yes,This one is also in the parade.,predicative,You say to your friend:,38,dog,n/a,NA,NA,graduated_college,English,female,NA,NA,You see a parade of animals.,1,1566832372418,NA,images/chihuahua.png,NA,1,is small.,small,NA,main1
425,NA,images/dog-parade2.png,8,NA,NA,That,n/a,1,dogs,patricia,NA,yes,This one is also in the parade.,predicative,You say to your friend:,38,dog,n/a,NA,NA,graduated_college,English,female,NA,NA,You see a parade of animals.,2,1566832372418,NA,images/pug.png,NA,1,is small.,small,NA,main1
425,NA,images/fish-parade2.png,8,NA,NA,That,n/a,1,fish,patricia,NA,yes,This one is also in the parade.,predicative,You say to your friend:,38,fish,n/a,NA,NA,graduated_college,English,female,NA,NA,You see a parade of animals.,3,1566832372418,NA,images/tuna.png,NA,1,is big.,big,NA,main1
425,goose,NA,8,warmup/sparrow.jpg,goose,This is a,n/a,1,birds,patricia,sparrow,yes,Please label the pictures below.,NA,NA,38,NA,n/a,warmup/goose.png,birds,graduated_college,English,female,NA,birds,NA,1,1566832372418,1,NA,This is a,1,These are both,NA,bird,warmup2
425,goose,NA,8,warmup/sparrow.jpg,goose,This is a,n/a,1,birds,patricia,sparrow,yes,Please label the pictures below.,NA,NA,38,NA,n/a,warmup/goose.png,birds,graduated_college,English,female,NA,birds,NA,1,1566832372418,2,NA,This is a,1,These are both,NA,sparrow,warmup2
425,swan,NA,8,warmup/canary.jpg,swan,This is a,n/a,1,birds,patricia,canary,yes,Please label the pictures below.,NA,NA,38,NA,n/a,warmup/swan.jpg,birds,graduated_college,English,female,NA,birds,NA,2,1566832372418,1,NA,This is a,1,These are both,NA,finch,warmup2
425,swan,NA,8,warmup/canary.jpg,swan,This is a,n/a,1,birds,patricia,canary,yes,Please label the pictures below.,NA,NA,38,NA,n/a,warmup/swan.jpg,birds,graduated_college,English,female,NA,birds,NA,2,1566832372418,2,NA,This is a,1,These are both,NA,canary,warmup2
425,dandelion,NA,8,warmup/sunflower.png,dandelion,This is a,n/a,1,flowers,patricia,sunflower,yes,Please label the pictures below.,NA,NA,38,NA,n/a,warmup/dandelion.jpg,flowers,graduated_college,English,female,NA,flowers,NA,3,1566832372418,1,NA,This is a,1,These are both,NA,sunflower,warmup2
425,NA,images/flower-parade2.png,8,NA,NA,That,n/a,1,flowers,patricia,NA,yes,This one is also in the collection.,predicative,You say to your friend:,38,flower,n/a,NA,NA,graduated_college,English,female,NA,NA,You see a collection of plants.,1,1566832372418,NA,images/sunflower.png,NA,1,is big.,big,NA,main2
425,NA,images/bird-parade3.png,8,NA,NA,That,n/a,1,birds,patricia,NA,yes,This one is also in the parade.,predicative,You say to your friend:,38,bird,n/a,NA,NA,graduated_college,English,female,NA,NA,You see a parade of animals.,2,1566832372418,NA,images/canary.png,NA,1,is small.,small,NA,main2
425,NA,images/bird-parade.png,8,NA,NA,That,n/a,1,birds,patricia,NA,yes,This one is also in the parade.,predicative,You say to your friend:,38,bird,n/a,NA,NA,graduated_college,English,female,NA,NA,You see a parade of animals.,3,1566832372418,NA,images/goose.png,NA,1,is big.,big,NA,main2
424,tree,NA,8,warmup/bonsai.jpg,redwood|sequoia,This is a,no,1,trees,patricia,bonsai,yes,Please label the pictures below.,NA,NA,45,NA,none,warmup/sequoia.jpg,trees,graduated_college,English,female,NA,trees,NA,1,1566832273210,1,NA,This is a,1.5,These are both,NA,tree,warmup1
424,redwood,NA,8,warmup/bonsai.jpg,redwood|sequoia,This is a,no,1,trees,patricia,bonsai,yes,Please label the pictures below.,NA,NA,45,NA,none,warmup/sequoia.jpg,trees,graduated_college,English,female,NA,trees,NA,1,1566832273210,2,NA,This is a,1.5,These are both,NA,bonsai,warmup1
424,chiwawa,NA,8,warmup/doberman.png,chihuahua,This is a,no,1,dogs,patricia,doberman,yes,Please label the pictures below.,NA,NA,45,NA,none,warmup/chihuahua.jpg,dogs,graduated_college,English,female,NA,dogs,NA,2,1566832273210,1,NA,This is a,1.5,These are both,NA,doberman,warmup1
424,chihuahua,NA,8,warmup/doberman.png,chihuahua,This is a,no,1,dogs,patricia,doberman,yes,Please label the pictures below.,NA,NA,45,NA,none,warmup/chihuahua.jpg,dogs,graduated_college,English,female,NA,dogs,NA,2,1566832273210,2,NA,This is a,1.5,These are both,NA,doberman,warmup1
424,swan,NA,8,warmup/canary.jpg,swan,This is a,no,1,birds,patricia,canary,yes,Please label the pictures below.,NA,NA,45,NA,none,warmup/swan.jpg,birds,graduated_college,English,female,NA,birds,NA,3,1566832273210,1,NA,This is a,1.5,These are both,NA,finch,warmup1
424,swan,NA,8,warmup/canary.jpg,swan,This is a,no,1,birds,patricia,canary,yes,Please label the pictures below.,NA,NA,45,NA,none,warmup/swan.jpg,birds,graduated_college,English,female,NA,birds,NA,3,1566832273210,2,NA,This is a,1.5,These are both,NA,canary,warmup1
424,NA,images/dog-parade.png,8,NA,NA,That,no,1,dogs,patricia,NA,yes,This one is also in the parade.,predicative,You say to your friend:,45,doberman,none,NA,NA,graduated_college,English,female,NA,NA,You see a parade of animals.,1,1566832273210,NA,images/doberman.png,NA,1.5,is big.,big,NA,main1
424,NA,images/tree-parade.png,8,NA,NA,That,no,1,trees,patricia,NA,yes,This one is also in the landscape.,predicative,You say to your friend:,45,redwood,none,NA,NA,graduated_college,English,female,NA,NA,You see the following items in a landscape.,2,1566832273210,NA,images/sequoia.png,NA,1.5,is big.,big,NA,main1
424,NA,images/bird-parade3.png,8,NA,NA,That,no,1,birds,patricia,NA,yes,This one is also in the parade.,predicative,You say to your friend:,45,canary,none,NA,NA,graduated_college,English,female,NA,NA,You see a parade of animals.,3,1566832273210,NA,images/canary.png,NA,1.5,is small.,small,NA,main1
424,trout,NA,8,warmup/clownfish.jpg,tuna,This is a,no,1,fish,patricia,clownfish,yes,Please label the pictures below.,NA,NA,45,NA,none,warmup/tuna.jpg,fish,graduated_college,English,female,NA,fish,NA,1,1566832273210,1,NA,This is a,1.5,These are both,NA,clownfish,warmup2
424,tuna,NA,8,warmup/clownfish.jpg,tuna,This is a,no,1,fish,patricia,clownfish,yes,Please label the pictures below.,NA,NA,45,NA,none,warmup/tuna.jpg,fish,graduated_college,English,female,NA,fish,NA,1,1566832273210,2,NA,This is a,1.5,These are both,NA,clownfish,warmup2
424,daisy,NA,8,warmup/peony.png,daisy,This is a,no,1,flowers,patricia,peony,yes,Please label the pictures below.,NA,NA,45,NA,none,warmup/daisy.png,flowers,graduated_college,English,female,NA,flowers,NA,2,1566832273210,1,NA,This is a,1.5,These are both,NA,rose,warmup2
424,daisy,NA,8,warmup/peony.png,daisy,This is a,no,1,flowers,patricia,peony,yes,Please label the pictures below.,NA,NA,45,NA,none,warmup/daisy.png,flowers,graduated_college,English,female,NA,flowers,NA,2,1566832273210,2,NA,This is a,1.5,These are both,NA,peony,warmup2
424,pug,NA,8,warmup/great-dane.jpg,pug,This is a,no,1,dogs,patricia,great dane,yes,Please label the pictures below.,NA,NA,45,NA,none,warmup/pug.jpg,dog,graduated_college,English,female,NA,dogs,NA,3,1566832273210,1,NA,This is a,1.5,These are both,NA,dog,warmup2
424,pug,NA,8,warmup/great-dane.jpg,pug,This is a,no,1,dogs,patricia,great dane,yes,Please label the pictures below.,NA,NA,45,NA,none,warmup/pug.jpg,dogs,graduated_college,English,female,NA,dogs,NA,3,1566832273210,2,NA,This is a,1.5,These are both,NA,great dane,warmup2
424,NA,images/dog-parade2.png,8,NA,NA,That,no,1,dogs,patricia,NA,yes,This one is also in the parade.,predicative,You say to your friend:,45,pug,none,NA,NA,graduated_college,English,female,NA,NA,You see a parade of animals.,1,1566832273210,NA,images/pug.png,NA,1.5,is small.,small,NA,main2
424,NA,images/flower-parade.png,8,NA,NA,That,no,1,flowers,patricia,NA,yes,This one is also in the collection.,predicative,You say to your friend:,45,daisy,none,NA,NA,graduated_college,English,female,NA,NA,You see a collection of plants.,2,1566832273210,NA,images/daisy.png,NA,1.5,is small.,small,NA,main2
424,NA,images/fish-parade2.png,8,NA,NA,That,no,1,fish,patricia,NA,yes,This one is also in the parade.,predicative,You say to your friend:,45,tuna,none,NA,NA,graduated_college,English,female,NA,NA,You see a parade of animals.,3,1566832273210,NA,images/tuna.png,NA,1.5,is big.,big,NA,main2
421,sparrow,NA,8,warmup/eagle.jpg,hummingbird,This is a,NA,2,birds,Mary,eagle,yes,Please label the pictures below.,NA,NA,58,NA,NA,warmup/colibri.jpg,birds,some_college,English,male,NA,birds,NA,1,1566832061407,1,NA,This is an,1.5,These are both,NA,eagle,warmup1
421,hummingbird,NA,8,warmup/eagle.jpg,hummingbird,This is a,NA,2,birds,Mary,eagle,yes,Please label the pictures below.,NA,NA,58,NA,NA,warmup/colibri.jpg,birds,some_college,English,male,NA,birds,NA,1,1566832061407,2,NA,This is an,1.5,These are both,NA,eagle,warmup1
421,flower,NA,8,warmup/sunflower.png,dandelion,This is a,NA,2,flowers,Mary,sunflower,yes,Please label the pictures below.,NA,NA,58,NA,NA,warmup/dandelion.jpg,flowers,some_college,English,male,NA,flowers,NA,2,1566832061407,1,NA,This is a,1.5,These are both,NA,sunflower,warmup1
421,dandelion,NA,8,warmup/sunflower.png,dandelion,This is a,NA,2,flowers,Mary,sunflower,yes,Please label the pictures below.,NA,NA,58,NA,NA,warmup/dandelion.jpg,flowers,some_college,English,male,NA,flowers,NA,2,1566832061407,2,NA,This is a,1.5,These are both,NA,sunflower,warmup1
421,squioa,NA,8,warmup/bonsai.jpg,redwood|sequoia,This is a,NA,2,trees,Mary,bonsai,yes,Please label the pictures below.,NA,NA,58,NA,NA,warmup/sequoia.jpg,treets,some_college,English,male,NA,trees,NA,3,1566832061407,1,NA,This is a,1.5,These are both,NA,plant,warmup1
421,redwood,NA,8,warmup/bonsai.jpg,redwood|sequoia,This is a,NA,2,trees,Mary,bonsai,yes,Please label the pictures below.,NA,NA,58,NA,NA,warmup/sequoia.jpg,trees,some_college,English,male,NA,trees,NA,3,1566832061407,2,NA,This is a,1.5,These are both,NA,bonsai,warmup1
421,NA,images/flower-parade2.png,8,NA,NA,That,NA,2,flowers,Mary,NA,yes,This one is also in the collection.,predicative,You say to your friend:,58,flower,NA,NA,NA,some_college,English,male,NA,NA,You see a collection of plants.,1,1566832061407,NA,images/dandelion.png,NA,1.5,is small.,small,NA,main1
421,NA,images/bird-parade2.png,8,NA,NA,That,NA,2,birds,Mary,NA,yes,This one is also in the parade.,predicative,You say to your friend:,58,eagle,NA,NA,NA,some_college,English,male,NA,NA,You see a parade of animals.,2,1566832061407,NA,images/eagle.png,NA,1.5,is big.,big,NA,main1
421,NA,images/tree-parade.png,8,NA,NA,That,NA,2,trees,Mary,NA,yes,This one is also in the landscape.,predicative,You say to your friend:,58,redwood,NA,NA,NA,some_college,English,male,NA,NA,You see the following items in a landscape.,3,1566832061407,NA,images/sequoia.png,NA,1.5,is big.,big,NA,main1
421,bulldog,NA,8,warmup/great-dane.jpg,pug,This is a,NA,2,dogs,Mary,great dane,yes,Please label the pictures below.,NA,NA,58,NA,NA,warmup/pug.jpg,dogs,some_college,English,male,NA,dogs,NA,1,1566832061407,1,NA,This is a,1.5,These are both,NA,German shephard,warmup2
421,pug,NA,8,warmup/great-dane.jpg,pug,This is a,NA,2,dogs,Mary,great dane,yes,Please label the pictures below.,NA,NA,58,NA,NA,warmup/pug.jpg,dogs,some_college,English,male,NA,dogs,NA,1,1566832061407,2,NA,This is a,1.5,These are both,NA,great dane,warmup2
421,fish,NA,8,warmup/clownfish.jpg,tuna,This is a,NA,2,fish,Mary,clownfish,yes,Please label the pictures below.,NA,NA,58,NA,NA,warmup/tuna.jpg,fish,some_college,English,male,NA,fish,NA,2,1566832061407,1,NA,This is a,1.5,These are both,NA,clownfish,warmup2
421,tuna,NA,8,warmup/clownfish.jpg,tuna,This is a,NA,2,fish,Mary,clownfish,yes,Please label the pictures below.,NA,NA,58,NA,NA,warmup/tuna.jpg,fish,some_college,English,male,NA,fish,NA,2,1566832061407,2,NA,This is a,1.5,These are both,NA,clownfish,warmup2
421,swan,NA,8,warmup/canary.jpg,swan,This is a,NA,2,birds,Mary,canary,yes,Please label the pictures below.,NA,NA,58,NA,NA,warmup/swan.jpg,birds,some_college,English,male,NA,birds,NA,3,1566832061407,1,NA,This is a,1.5,These are both,NA,canary,warmup2
421,NA,images/fish-parade2.png,8,NA,NA,That,NA,2,fish,Mary,NA,yes,This one is also in the parade.,predicative,You say to your friend:,58,clownfish,NA,NA,NA,some_college,English,male,NA,NA,You see a parade of animals.,1,1566832061407,NA,images/clownfish.png,NA,1.5,is small.,small,NA,main2
421,NA,images/dog-parade2.png,8,NA,NA,That,NA,2,dogs,Mary,NA,yes,This one is also in the parade.,predicative,You say to your friend:,58,pug,NA,NA,NA,some_college,English,male,NA,NA,You see a parade of animals.,2,1566832061407,NA,images/pug.png,NA,1.5,is small.,small,NA,main2
421,NA,images/bird-parade3.png,8,NA,NA,That,NA,2,birds,Mary,NA,yes,This one is also in the parade.,predicative,You say to your friend:,58,swan,NA,NA,NA,some_college,English,male,NA,NA,You see a parade of animals.,3,1566832061407,NA,images/swan.png,NA,1.5,is big.,big,NA,main2
420,hummingbird,NA,8,warmup/eagle.jpg,hummingbird,This is a,No,1,birds,barbara,eagle,NA,Please label the pictures below.,NA,NA,NA,NA,NA,warmup/colibri.jpg,birds,some_college,English,NA,NA,birds,NA,1,1566831987683,1,NA,This is an,1,These are both,NA,eagle,warmup1
420,swordfish,NA,8,warmup/goldfish.png,swordfish,This is a,No,1,fish,barbara,goldfish,NA,Please label the pictures below.,NA,NA,NA,NA,NA,warmup/swordfish.jpg,fish,some_college,English,NA,NA,fish,NA,2,1566831987683,1,NA,This is a,1,These are both,NA,goldfish,warmup1
420,tree,NA,8,warmup/bonsai.jpg,redwood|sequoia,This is a,No,1,trees,barbara,bonsai,NA,Please label the pictures below.,NA,NA,NA,NA,NA,warmup/sequoia.jpg,trees,some_college,English,NA,NA,trees,NA,3,1566831987683,1,NA,This is a,1,These are both,NA,bonsai,warmup1
420,tree,NA,8,warmup/bonsai.jpg,redwood|sequoia,This is a,No,1,trees,barbara,bonsai,NA,Please label the pictures below.,NA,NA,NA,NA,NA,warmup/sequoia.jpg,trees,some_college,English,NA,NA,trees,NA,3,1566831987683,2,NA,This is a,1,These are both,NA,bush,warmup1
420,redwood,NA,8,warmup/bonsai.jpg,redwood|sequoia,This is a,No,1,trees,barbara,bonsai,NA,Please label the pictures below.,NA,NA,NA,NA,NA,warmup/sequoia.jpg,trees,some_college,English,NA,NA,trees,NA,3,1566831987683,3,NA,This is a,1,These are both,NA,bonsai,warmup1
420,NA,images/fish-parade.png,8,NA,NA,That,No,1,fish,barbara,NA,NA,This one is also in the parade.,predicative,You say to your friend:,NA,goldfish,NA,NA,NA,some_college,English,NA,NA,NA,You see a parade of animals.,1,1566831987683,NA,images/goldfish.png,NA,1,is small.,small,NA,main1
420,NA,images/tree-parade.png,8,NA,NA,That,No,1,trees,barbara,NA,NA,This one is also in the landscape.,predicative,You say to your friend:,NA,redwood,NA,NA,NA,some_college,English,NA,NA,NA,You see the following items in a landscape.,2,1566831987683,NA,images/sequoia.png,NA,1,is big.,big,NA,main1
420,NA,images/bird-parade2.png,8,NA,NA,That,No,1,birds,barbara,NA,NA,This one is also in the parade.,predicative,You say to your friend:,NA,hummingbird,NA,NA,NA,some_college,English,NA,NA,NA,You see a parade of animals.,3,1566831987683,NA,images/hummingbird.png,NA,1,is small.,small,NA,main1
420,duck,NA,8,warmup/sparrow.jpg,goose,This is a,No,1,birds,barbara,sparrow,NA,Please label the pictures below.,NA,NA,NA,NA,NA,warmup/goose.png,birds,some_college,English,NA,NA,birds,NA,1,1566831987683,1,NA,This is a,1,These are both,NA,sparrow,warmup2
420,goose,NA,8,warmup/sparrow.jpg,goose,This is a,No,1,birds,barbara,sparrow,NA,Please label the pictures below.,NA,NA,NA,NA,NA,warmup/goose.png,birds,some_college,English,NA,NA,birds,NA,1,1566831987683,2,NA,This is a,1,These are both,NA,sparrow,warmup2
420,chiuaua,NA,8,warmup/doberman.png,chihuahua,This is a,No,1,dogs,barbara,doberman,NA,Please label the pictures below.,NA,NA,NA,NA,NA,warmup/chihuahua.jpg,dogs,some_college,English,NA,NA,dogs,NA,2,1566831987683,1,NA,This is a,1,These are both,NA,doberman,warmup2
420,chihuahua,NA,8,warmup/doberman.png,chihuahua,This is a,No,1,dogs,barbara,doberman,NA,Please label the pictures below.,NA,NA,NA,NA,NA,warmup/chihuahua.jpg,dogs,some_college,English,NA,NA,dogs,NA,2,1566831987683,2,NA,This is a,1,These are both,NA,doberman,warmup2
420,sinflower,NA,8,warmup/peony.png,daisy,This is a,No,1,flowers,barbara,peony,NA,Please label the pictures below.,NA,NA,NA,NA,NA,warmup/daisy.png,flowers,some_college,English,NA,NA,flowers,NA,3,1566831987683,1,NA,This is a,1,These are both,NA,rose,warmup2
420,daisy,NA,8,warmup/peony.png,daisy,This is a,No,1,flowers,barbara,peony,NA,Please label the pictures below.,NA,NA,NA,NA,NA,warmup/daisy.png,flowers,some_college,English,NA,NA,flowers,NA,3,1566831987683,2,NA,This is a,1,These are both,NA,peony,warmup2
420,NA,images/bird-parade.png,8,NA,NA,That,No,1,birds,barbara,NA,NA,This one is also in the parade.,predicative,You say to your friend:,NA,goose,NA,NA,NA,some_college,English,NA,NA,NA,You see a parade of animals.,1,1566831987683,NA,images/goose.png,NA,1,is big.,big,NA,main2
420,NA,images/dog-parade.png,8,NA,NA,That,No,1,dogs,barbara,NA,NA,This one is also in the parade.,predicative,You say to your friend:,NA,chihuahua,NA,NA,NA,some_college,English,NA,NA,NA,You see a parade of animals.,2,1566831987683,NA,images/chihuahua.png,NA,1,is small.,small,NA,main2
420,NA,images/flower-parade.png,8,NA,NA,That,No,1,flowers,barbara,NA,NA,This one is also in the collection.,predicative,You say to your friend:,NA,peony,NA,NA,NA,some_college,English,NA,NA,NA,You see a collection of plants.,3,1566831987683,NA,images/peony.png,NA,1,is big.,big,NA,main2
415,Fish,NA,8,warmup/clownfish.jpg,tuna,This is a,NA,2,fish,Linda,clownfish,yes,Please label the pictures below.,NA,NA,48,NA,NA,warmup/tuna.jpg,Fish,graduated_college,English,male,NA,fish,NA,1,1566831795367,1,NA,This is a,2,These are both,NA,Nemo,warmup1
415,tuna,NA,8,warmup/clownfish.jpg,tuna,This is a,NA,2,fish,Linda,clownfish,yes,Please label the pictures below.,NA,NA,48,NA,NA,warmup/tuna.jpg,Fish,graduated_college,English,male,NA,fish,NA,1,1566831795367,2,NA,This is a,2,These are both,NA,clownfish,warmup1
415,sting,NA,8,warmup/goldfish.png,swordfish,This is a,NA,2,fish,Linda,goldfish,yes,Please label the pictures below.,NA,NA,48,NA,NA,warmup/swordfish.jpg,fish,graduated_college,English,male,NA,fish,NA,2,1566831795367,1,NA,This is a,2,These are both,NA,golden,warmup1
415,swordfish,NA,8,warmup/goldfish.png,swordfish,This is a,NA,2,fish,Linda,goldfish,yes,Please label the pictures below.,NA,NA,48,NA,NA,warmup/swordfish.jpg,fish,graduated_college,English,male,NA,fish,NA,2,1566831795367,2,NA,This is a,2,These are both,NA,goldfish,warmup1
415,tree,NA,8,warmup/bonsai.jpg,redwood|sequoia,This is a,NA,2,trees,Linda,bonsai,yes,Please label the pictures below.,NA,NA,48,NA,NA,warmup/sequoia.jpg,tree,graduated_college,English,male,NA,trees,NA,3,1566831795367,1,NA,This is a,2,These are both,NA,plant,warmup1
415,redwood,NA,8,warmup/bonsai.jpg,redwood|sequoia,This is a,NA,2,trees,Linda,bonsai,yes,Please label the pictures below.,NA,NA,48,NA,NA,warmup/sequoia.jpg,trees,graduated_college,English,male,NA,trees,NA,3,1566831795367,2,NA,This is a,2,These are both,NA,plantbonsai,warmup1
415,redwood,NA,8,warmup/bonsai.jpg,redwood|sequoia,This is a,NA,2,trees,Linda,bonsai,yes,Please label the pictures below.,NA,NA,48,NA,NA,warmup/sequoia.jpg,trees,graduated_college,English,male,NA,trees,NA,3,1566831795367,3,NA,This is a,2,These are both,NA,plantbonsai,warmup1
415,redwood,NA,8,warmup/bonsai.jpg,redwood|sequoia,This is a,NA,2,trees,Linda,bonsai,yes,Please label the pictures below.,NA,NA,48,NA,NA,warmup/sequoia.jpg,trees,graduated_college,English,male,NA,trees,NA,3,1566831795367,4,NA,This is a,2,These are both,NA,plantbonsai,warmup1
415,redwood,NA,8,warmup/bonsai.jpg,redwood|sequoia,This is a,NA,2,trees,Linda,bonsai,yes,Please label the pictures below.,NA,NA,48,NA,NA,warmup/sequoia.jpg,trees,graduated_college,English,male,NA,trees,NA,3,1566831795367,5,NA,This is a,2,These are both,NA,bonsai,warmup1
415,NA,images/fish-parade.png,8,NA,NA,That,NA,2,fish,Linda,NA,yes,This one is also in the parade.,predicative,You say to your friend:,48,goldfish,NA,NA,NA,graduated_college,English,male,NA,NA,You see a parade of animals.,1,1566831795367,NA,images/goldfish.png,NA,2,is small.,small,NA,main1
415,NA,images/fish-parade2.png,8,NA,NA,That,NA,2,fish,Linda,NA,yes,This one is also in the parade.,predicative,You say to your friend:,48,stingfish,NA,NA,NA,graduated_college,English,male,NA,NA,You see a parade of animals.,2,1566831795367,NA,images/tuna.png,NA,2,is big.,big,NA,main1
415,NA,images/tree-parade.png,8,NA,NA,That,NA,2,trees,Linda,NA,yes,This one is also in the landscape.,predicative,You say to your friend:,48,squeioa,NA,NA,NA,graduated_college,English,male,NA,NA,You see the following items in a landscape.,3,1566831795367,NA,images/sequoia.png,NA,2,is big.,big,NA,main1
415,lilly,NA,8,warmup/peony.png,daisy,This is a,NA,2,flowers,Linda,peony,yes,Please label the pictures below.,NA,NA,48,NA,NA,warmup/daisy.png,flowers,graduated_college,English,male,NA,flowers,NA,1,1566831795367,1,NA,This is a,2,These are both,NA,rose,warmup2
415,daisy,NA,8,warmup/peony.png,daisy,This is a,NA,2,flowers,Linda,peony,yes,Please label the pictures below.,NA,NA,48,NA,NA,warmup/daisy.png,flowers,graduated_college,English,male,NA,flowers,NA,1,1566831795367,2,NA,This is a,2,These are both,NA,peony,warmup2
415,duck,NA,8,warmup/canary.jpg,swan,This is a,NA,2,birds,Linda,canary,yes,Please label the pictures below.,NA,NA,48,NA,NA,warmup/swan.jpg,birds,graduated_college,English,male,NA,birds,NA,2,1566831795367,1,NA,This is a,2,These are both,NA,sparrow,warmup2
415,swan,NA,8,warmup/canary.jpg,swan,This is a,NA,2,birds,Linda,canary,yes,Please label the pictures below.,NA,NA,48,NA,NA,warmup/swan.jpg,birds,graduated_college,English,male,NA,birds,NA,2,1566831795367,2,NA,This is a,2,These are both,NA,canary,warmup2
415,chicua,NA,8,warmup/doberman.png,chihuahua,This is a,NA,2,dogs,Linda,doberman,yes,Please label the pictures below.,NA,NA,48,NA,NA,warmup/chihuahua.jpg,dogs,graduated_college,English,male,NA,dogs,NA,3,1566831795367,1,NA,This is a,2,These are both,NA,German Shephard,warmup2
415,chihuahua,NA,8,warmup/doberman.png,chihuahua,This is a,NA,2,dogs,Linda,doberman,yes,Please label the pictures below.,NA,NA,48,NA,NA,warmup/chihuahua.jpg,dogs,graduated_college,English,male,NA,dogs,NA,3,1566831795367,2,NA,This is a,2,These are both,NA,doberman,warmup2
415,NA,images/bird-parade3.png,8,NA,NA,That,NA,2,birds,Linda,NA,yes,This one is also in the parade.,predicative,You say to your friend:,48,canary,NA,NA,NA,graduated_college,English,male,NA,NA,You see a parade of animals.,1,1566831795367,NA,images/canary.png,NA,2,is small.,small,NA,main2
415,NA,images/dog-parade.png,8,NA,NA,That,NA,2,dogs,Linda,NA,yes,This one is also in the parade.,predicative,You say to your friend:,48,chihuahua,NA,NA,NA,graduated_college,English,male,NA,NA,You see a parade of animals.,2,1566831795367,NA,images/chihuahua.png,NA,2,is small.,small,NA,main2
415,NA,images/flower-parade.png,8,NA,NA,That,NA,2,flowers,Linda,NA,yes,This one is also in the collection.,predicative,You say to your friend:,48,flower,NA,NA,NA,graduated_college,English,male,NA,NA,You see a collection of plants.,3,1566831795367,NA,images/peony.png,NA,2,is big.,big,NA,main2
414,flower,NA,8,warmup/peony.png,daisy,This is a,"No, I had no problems or glitches.",2,flowers,linda,peony,yes,Please label the pictures below.,NA,NA,38,NA,NA,warmup/daisy.png,flowers,graduated_college,English,female,NA,flowers,NA,1,1566831550968,1,NA,This is a,1,These are both,NA,flower,warmup1
414,daisy,NA,8,warmup/peony.png,daisy,This is a,"No, I had no problems or glitches.",2,flowers,linda,peony,yes,Please label the pictures below.,NA,NA,38,NA,NA,warmup/daisy.png,flowers,graduated_college,English,female,NA,flowers,NA,1,1566831550968,2,NA,This is a,1,These are both,NA,peony,warmup1
414,duck,NA,8,warmup/sparrow.jpg,goose,This is a,"No, I had no problems or glitches.",2,birds,linda,sparrow,yes,Please label the pictures below.,NA,NA,38,NA,NA,warmup/goose.png,birds,graduated_college,English,female,NA,birds,NA,2,1566831550968,1,NA,This is a,1,These are both,NA,sparrow,warmup1
414,goose,NA,8,warmup/sparrow.jpg,goose,This is a,"No, I had no problems or glitches.",2,birds,linda,sparrow,yes,Please label the pictures below.,NA,NA,38,NA,NA,warmup/goose.png,birds,graduated_college,English,female,NA,birds,NA,2,1566831550968,2,NA,This is a,1,These are both,NA,sparrow,warmup1
414,swan,NA,8,warmup/canary.jpg,swan,This is a,"No, I had no problems or glitches.",2,birds,linda,canary,yes,Please label the pictures below.,NA,NA,38,NA,NA,warmup/swan.jpg,birds,graduated_college,English,female,NA,birds,NA,3,1566831550968,1,NA,This is a,1,These are both,NA,canary,warmup1
414,NA,images/flower-parade.png,8,NA,NA,That,"No, I had no problems or glitches.",2,flowers,linda,NA,yes,This one is also in the collection.,predicative,You say to your friend:,38,peony,NA,NA,NA,graduated_college,English,female,NA,NA,You see a collection of plants.,1,1566831550968,NA,images/peony.png,NA,1,is big.,big,NA,main1
414,NA,images/bird-parade.png,8,NA,NA,That,"No, I had no problems or glitches.",2,birds,linda,NA,yes,This one is also in the parade.,predicative,You say to your friend:,38,goose,NA,NA,NA,graduated_college,English,female,NA,NA,You see a parade of animals.,2,1566831550968,NA,images/goose.png,NA,1,is big.,big,NA,main1
414,NA,images/bird-parade3.png,8,NA,NA,That,"No, I had no problems or glitches.",2,birds,linda,NA,yes,This one is also in the parade.,predicative,You say to your friend:,38,canary,NA,NA,NA,graduated_college,English,female,NA,NA,You see a parade of animals.,3,1566831550968,NA,images/canary.png,NA,1,is small.,small,NA,main1
414,shark,NA,8,warmup/goldfish.png,swordfish,This is a,"No, I had no problems or glitches.",2,fish,linda,goldfish,yes,Please label the pictures below.,NA,NA,38,NA,NA,warmup/swordfish.jpg,fish,graduated_college,English,female,NA,fish,NA,1,1566831550968,1,NA,This is a,1,These are both,NA,goldfish,warmup2
414,swordfish,NA,8,warmup/goldfish.png,swordfish,This is a,"No, I had no problems or glitches.",2,fish,linda,goldfish,yes,Please label the pictures below.,NA,NA,38,NA,NA,warmup/swordfish.jpg,fish,graduated_college,English,female,NA,fish,NA,1,1566831550968,2,NA,This is a,1,These are both,NA,goldfish,warmup2
414,redwood,NA,8,warmup/bonsai.jpg,redwood|sequoia,This is a,"No, I had no problems or glitches.",2,trees,linda,bonsai,yes,Please label the pictures below.,NA,NA,38,NA,NA,warmup/sequoia.jpg,trees,graduated_college,English,female,NA,trees,NA,2,1566831550968,1,NA,This is a,1,These are both,NA,bonsai,warmup2
414,trout,NA,8,warmup/clownfish.jpg,tuna,This is a,"No, I had no problems or glitches.",2,fish,linda,clownfish,yes,Please label the pictures below.,NA,NA,38,NA,NA,warmup/tuna.jpg,fish,graduated_college,English,female,NA,fish,NA,3,1566831550968,1,NA,This is a,1,These are both,NA,goldfish,warmup2
414,tuna,NA,8,warmup/clownfish.jpg,tuna,This is a,"No, I had no problems or glitches.",2,fish,linda,clownfish,yes,Please label the pictures below.,NA,NA,38,NA,NA,warmup/tuna.jpg,fish,graduated_college,English,female,NA,fish,NA,3,1566831550968,2,NA,This is a,1,These are both,NA,clownfish,warmup2
414,NA,images/fish-parade.png,8,NA,NA,That,"No, I had no problems or glitches.",2,fish,linda,NA,yes,This one is also in the parade.,predicative,You say to your friend:,38,goldfish,NA,NA,NA,graduated_college,English,female,NA,NA,You see a parade of animals.,1,1566831550968,NA,images/goldfish.png,NA,1,is small.,small,NA,main2
414,NA,images/tree-parade.png,8,NA,NA,That,"No, I had no problems or glitches.",2,trees,linda,NA,yes,This one is also in the landscape.,predicative,You say to your friend:,38,bonsai,NA,NA,NA,graduated_college,English,female,NA,NA,You see the following items in a landscape.,2,1566831550968,NA,images/bonsai.png,NA,1,is small.,small,NA,main2
414,NA,images/fish-parade2.png,8,NA,NA,That,"No, I had no problems or glitches.",2,fish,linda,NA,yes,This one is also in the parade.,predicative,You say to your friend:,38,tuna,NA,NA,NA,graduated_college,English,female,NA,NA,You see a parade of animals.,3,1566831550968,NA,images/tuna.png,NA,1,is big.,big,NA,main2
413,hummingbird,NA,8,warmup/eagle.jpg,hummingbird,This is a,I experienced no issues.,2,birds,barbara,eagle,yes,Please label the pictures below.,NA,NA,39,NA,I have no further comments.,warmup/colibri.jpg,birds,some_college,English,male,NA,birds,NA,1,1566831284671,1,NA,This is an,1,These are both,NA,eagle,warmup1
413,swordfish,NA,8,warmup/goldfish.png,swordfish,This is a,I experienced no issues.,2,fish,barbara,goldfish,yes,Please label the pictures below.,NA,NA,39,NA,I have no further comments.,warmup/swordfish.jpg,fish,some_college,English,male,NA,fish,NA,2,1566831284671,1,NA,This is a,1,These are both,NA,goldfish,warmup1
413,tuna,NA,8,warmup/clownfish.jpg,tuna,This is a,I experienced no issues.,2,fish,barbara,clownfish,yes,Please label the pictures below.,NA,NA,39,NA,I have no further comments.,warmup/tuna.jpg,fish,some_college,English,male,NA,fish,NA,3,1566831284671,1,NA,This is a,1,These are both,NA,clownfish,warmup1
413,NA,images/bird-parade2.png,8,NA,NA,That,I experienced no issues.,2,birds,barbara,NA,yes,This one is also in the parade.,predicative,You say to your friend:,39,bird,I have no further comments.,NA,NA,some_college,English,male,NA,NA,You see a parade of animals.,1,1566831284671,NA,images/eagle.png,NA,1,is big.,big,NA,main1
413,NA,images/fish-parade2.png,8,NA,NA,That,I experienced no issues.,2,fish,barbara,NA,yes,This one is also in the parade.,predicative,You say to your friend:,39,clownfish,I have no further comments.,NA,NA,some_college,English,male,NA,NA,You see a parade of animals.,2,1566831284671,NA,images/clownfish.png,NA,1,is small.,small,NA,main1
413,NA,images/fish-parade.png,8,NA,NA,That,I experienced no issues.,2,fish,barbara,NA,yes,This one is also in the parade.,predicative,You say to your friend:,39,swordfish,I have no further comments.,NA,NA,some_college,English,male,NA,NA,You see a parade of animals.,3,1566831284671,NA,images/swordfish.png,NA,1,is big.,big,NA,main1
413,dandelion,NA,8,warmup/sunflower.png,dandelion,This is a,I experienced no issues.,2,flowers,barbara,sunflower,yes,Please label the pictures below.,NA,NA,39,NA,I have no further comments.,warmup/dandelion.jpg,flowers,some_college,English,male,NA,flowers,NA,1,1566831284671,1,NA,This is a,1,These are both,NA,sunflower,warmup2
413,pug,NA,8,warmup/great-dane.jpg,pug,This is a,I experienced no issues.,2,dogs,barbara,great dane,yes,Please label the pictures below.,NA,NA,39,NA,I have no further comments.,warmup/pug.jpg,dogs,some_college,English,male,NA,dogs,NA,2,1566831284671,1,NA,This is a,1,These are both,NA,great dane,warmup2
413,swan,NA,8,warmup/canary.jpg,swan,This is a,I experienced no issues.,2,birds,barbara,canary,yes,Please label the pictures below.,NA,NA,39,NA,I have no further comments.,warmup/swan.jpg,birds,some_college,English,male,NA,birds,NA,3,1566831284671,1,NA,This is a,1,These are both,NA,finch,warmup2
413,swan,NA,8,warmup/canary.jpg,swan,This is a,I experienced no issues.,2,birds,barbara,canary,yes,Please label the pictures below.,NA,NA,39,NA,I have no further comments.,warmup/swan.jpg,birds,some_college,English,male,NA,birds,NA,3,1566831284671,2,NA,This is a,1,These are both,NA,canary,warmup2
413,NA,images/bird-parade3.png,8,NA,NA,That,I experienced no issues.,2,birds,barbara,NA,yes,This one is also in the parade.,predicative,You say to your friend:,39,canary,I have no further comments.,NA,NA,some_college,English,male,NA,NA,You see a parade of animals.,1,1566831284671,NA,images/canary.png,NA,1,is small.,small,NA,main2
413,NA,images/dog-parade2.png,8,NA,NA,That,I experienced no issues.,2,dogs,barbara,NA,yes,This one is also in the parade.,predicative,You say to your friend:,39,pug,I have no further comments.,NA,NA,some_college,English,male,NA,NA,You see a parade of animals.,2,1566831284671,NA,images/pug.png,NA,1,is small.,small,NA,main2
413,NA,images/flower-parade2.png,8,NA,NA,That,I experienced no issues.,2,flowers,barbara,NA,yes,This one is also in the collection.,predicative,You say to your friend:,39,sunflower,I have no further comments.,NA,NA,some_college,English,male,NA,NA,You see a collection of plants.,3,1566831284671,NA,images/sunflower.png,NA,1,is big.,big,NA,main2
409,humming bird,NA,8,warmup/eagle.jpg,hummingbird,This is a,no,1,birds,Patricia,eagle,yes,Please label the pictures below.,NA,NA,59,NA,none,warmup/colibri.jpg,birds,graduated_college,english,female,NA,birds,NA,1,1566830776862,1,NA,This is an,1,These are both,NA,eagle,warmup1
409,hummingbird,NA,8,warmup/eagle.jpg,hummingbird,This is a,no,1,birds,Patricia,eagle,yes,Please label the pictures below.,NA,NA,59,NA,none,warmup/colibri.jpg,birds,graduated_college,english,female,NA,birds,NA,1,1566830776862,2,NA,This is an,1,These are both,NA,eagle,warmup1
409,swan,NA,8,warmup/canary.jpg,swan,This is a,no,1,birds,Patricia,canary,yes,Please label the pictures below.,NA,NA,59,NA,none,warmup/swan.jpg,birds,graduated_college,english,female,NA,birds,NA,2,1566830776862,1,NA,This is a,1,These are both,NA,parakeet,warmup1
409,swan,NA,8,warmup/canary.jpg,swan,This is a,no,1,birds,Patricia,canary,yes,Please label the pictures below.,NA,NA,59,NA,none,warmup/swan.jpg,birds,graduated_college,english,female,NA,birds,NA,2,1566830776862,2,NA,This is a,1,These are both,NA,canary,warmup1
409,dandelion,NA,8,warmup/sunflower.png,dandelion,This is a,no,1,flowers,Patricia,sunflower,yes,Please label the pictures below.,NA,NA,59,NA,none,warmup/dandelion.jpg,flowers,graduated_college,english,female,NA,flowers,NA,3,1566830776862,1,NA,This is a,1,These are both,NA,sunflower,warmup1
409,NA,images/bird-parade3.png,8,NA,NA,That,no,1,birds,Patricia,NA,yes,This one is also in the parade.,predicative,You say to your friend:,59,swan,none,NA,NA,graduated_college,english,female,NA,NA,You see a parade of animals.,1,1566830776862,NA,images/swan.png,NA,1,is big.,big,NA,main1
409,NA,images/bird-parade2.png,8,NA,NA,That,no,1,birds,Patricia,NA,yes,This one is also in the parade.,predicative,You say to your friend:,59,eagle,none,NA,NA,graduated_college,english,female,NA,NA,You see a parade of animals.,2,1566830776862,NA,images/eagle.png,NA,1,is big.,big,NA,main1
409,NA,images/flower-parade2.png,8,NA,NA,That,no,1,flowers,Patricia,NA,yes,This one is also in the collection.,predicative,You say to your friend:,59,sunflower,none,NA,NA,graduated_college,english,female,NA,NA,You see a collection of plants.,3,1566830776862,NA,images/sunflower.png,NA,1,is big.,big,NA,main1
409,marlin,NA,8,warmup/goldfish.png,swordfish,This is a,no,1,fish,Patricia,goldfish,yes,Please label the pictures below.,NA,NA,59,NA,none,warmup/swordfish.jpg,fish,graduated_college,english,female,NA,fish,NA,1,1566830776862,1,NA,This is a,1,These are both,NA,goldfish,warmup2
409,swordfish,NA,8,warmup/goldfish.png,swordfish,This is a,no,1,fish,Patricia,goldfish,yes,Please label the pictures below.,NA,NA,59,NA,none,warmup/swordfish.jpg,fish,graduated_college,english,female,NA,fish,NA,1,1566830776862,2,NA,This is a,1,These are both,NA,goldfish,warmup2
409,chihuahua,NA,8,warmup/doberman.png,chihuahua,This is a,no,1,dogs,Patricia,doberman,yes,Please label the pictures below.,NA,NA,59,NA,none,warmup/chihuahua.jpg,dogs,graduated_college,english,female,NA,dogs,NA,2,1566830776862,1,NA,This is a,1,These are both,NA,doberman,warmup2
409,redwood,NA,8,warmup/bonsai.jpg,redwood|sequoia,This is a,no,1,trees,Patricia,bonsai,yes,Please label the pictures below.,NA,NA,59,NA,none,warmup/sequoia.jpg,trees,graduated_college,english,female,NA,trees,NA,3,1566830776862,1,NA,This is a,1,These are both,NA,bonsai,warmup2
409,NA,images/dog-parade.png,8,NA,NA,That,no,1,dogs,Patricia,NA,yes,This one is also in the parade.,predicative,You say to your friend:,59,chihuahua,none,NA,NA,graduated_college,english,female,NA,NA,You see a parade of animals.,1,1566830776862,NA,images/chihuahua.png,NA,1,is small.,small,NA,main2
409,NA,images/tree-parade.png,8,NA,NA,That,no,1,trees,Patricia,NA,yes,This one is also in the landscape.,predicative,You say to your friend:,59,bonsai,none,NA,NA,graduated_college,english,female,NA,NA,You see the following items in a landscape.,2,1566830776862,NA,images/bonsai.png,NA,1,is small.,small,NA,main2
409,NA,images/fish-parade.png,8,NA,NA,That,no,1,fish,Patricia,NA,yes,This one is also in the parade.,predicative,You say to your friend:,59,goldfish,none,NA,NA,graduated_college,english,female,NA,NA,You see a parade of animals.,3,1566830776862,NA,images/goldfish.png,NA,1,is small.,small,NA,main2
404,Redwood,NA,8,warmup/bonsai.jpg,redwood|sequoia,This is a,NA,2,trees,Patricia,bonsai,yes,Please label the pictures below.,NA,NA,37,NA,NA,warmup/sequoia.jpg,Trees,graduated_college,English,male,NA,trees,NA,1,1566831298617,1,NA,This is a,1,These are both,NA,Bonsai,warmup1
404,swan,NA,8,warmup/canary.jpg,swan,This is a,NA,2,birds,Patricia,canary,yes,Please label the pictures below.,NA,NA,37,NA,NA,warmup/swan.jpg,birds,graduated_college,English,male,NA,birds,NA,2,1566831298617,1,NA,This is a,1,These are both,NA,chick,warmup1
404,swan,NA,8,warmup/canary.jpg,swan,This is a,NA,2,birds,Patricia,canary,yes,Please label the pictures below.,NA,NA,37,NA,NA,warmup/swan.jpg,birds,graduated_college,English,male,NA,birds,NA,2,1566831298617,2,NA,This is a,1,These are both,NA,canary,warmup1
404,swordfish,NA,8,warmup/goldfish.png,swordfish,This is a,NA,2,fish,Patricia,goldfish,yes,Please label the pictures below.,NA,NA,37,NA,NA,warmup/swordfish.jpg,fish,graduated_college,English,male,NA,fish,NA,3,1566831298617,1,NA,This is a,1,These are both,NA,goldfish,warmup1
404,NA,images/fish-parade.png,8,NA,NA,That,NA,2,fish,Patricia,NA,yes,This one is also in the parade.,predicative,You say to your friend:,37,fish,NA,NA,NA,graduated_college,English,male,NA,NA,You see a parade of animals.,1,1566831298617,NA,images/swordfish.png,NA,1,is big.,big,NA,main1
404,NA,images/tree-parade.png,8,NA,NA,That,NA,2,trees,Patricia,NA,yes,This one is also in the landscape.,predicative,You say to your friend:,37,tree,NA,NA,NA,graduated_college,English,male,NA,NA,You see the following items in a landscape.,2,1566831298617,NA,images/bonsai.png,NA,1,is small.,small,NA,main1
404,NA,images/bird-parade3.png,8,NA,NA,That,NA,2,birds,Patricia,NA,yes,This one is also in the parade.,predicative,You say to your friend:,37,bird,NA,NA,NA,graduated_college,English,male,NA,NA,You see a parade of animals.,3,1566831298617,NA,images/canary.png,NA,1,is small.,small,NA,main1
404,salmon,NA,8,warmup/clownfish.jpg,tuna,This is a,NA,2,fish,Patricia,clownfish,yes,Please label the pictures below.,NA,NA,37,NA,NA,warmup/tuna.jpg,fish,graduated_college,English,male,NA,fish,NA,1,1566831298617,1,NA,This is a,1,These are both,NA,rainbow fish,warmup2
404,tuna,NA,8,warmup/clownfish.jpg,tuna,This is a,NA,2,fish,Patricia,clownfish,yes,Please label the pictures below.,NA,NA,37,NA,NA,warmup/tuna.jpg,fish,graduated_college,English,male,NA,fish,NA,1,1566831298617,2,NA,This is a,1,These are both,NA,clownfish,warmup2
404,goose,NA,8,warmup/sparrow.jpg,goose,This is a,NA,2,birds,Patricia,sparrow,yes,Please label the pictures below.,NA,NA,37,NA,NA,warmup/goose.png,birds,graduated_college,English,male,NA,birds,NA,2,1566831298617,1,NA,This is a,1,These are both,NA,finch,warmup2
404,goose,NA,8,warmup/sparrow.jpg,goose,This is a,NA,2,birds,Patricia,sparrow,yes,Please label the pictures below.,NA,NA,37,NA,NA,warmup/goose.png,birds,graduated_college,English,male,NA,birds,NA,2,1566831298617,2,NA,This is a,1,These are both,NA,sparrow,warmup2
404,weed,NA,8,warmup/sunflower.png,dandelion,This is a,NA,2,flowers,Patricia,sunflower,yes,Please label the pictures below.,NA,NA,37,NA,NA,warmup/dandelion.jpg,flower,graduated_college,English,male,NA,flowers,NA,3,1566831298617,1,NA,This is a,1,These are both,NA,sunflower,warmup2
404,dandelion,NA,8,warmup/sunflower.png,dandelion,This is a,NA,2,flowers,Patricia,sunflower,yes,Please label the pictures below.,NA,NA,37,NA,NA,warmup/dandelion.jpg,flower,graduated_college,English,male,NA,flowers,NA,3,1566831298617,2,NA,This is a,1,These are both,NA,sunflower,warmup2
404,dandelion,NA,8,warmup/sunflower.png,dandelion,This is a,NA,2,flowers,Patricia,sunflower,yes,Please label the pictures below.,NA,NA,37,NA,NA,warmup/dandelion.jpg,flowers,graduated_college,English,male,NA,flowers,NA,3,1566831298617,3,NA,This is a,1,These are both,NA,sunflower,warmup2
404,NA,images/fish-parade2.png,8,NA,NA,That,NA,2,fish,Patricia,NA,yes,This one is also in the parade.,predicative,You say to your friend:,37,fish,NA,NA,NA,graduated_college,English,male,NA,NA,You see a parade of animals.,1,1566831298617,NA,images/clownfish.png,NA,1,is small.,small,NA,main2
404,NA,images/flower-parade2.png,8,NA,NA,That,NA,2,flowers,Patricia,NA,yes,This one is also in the collection.,predicative,You say to your friend:,37,flower,NA,NA,NA,graduated_college,English,male,NA,NA,You see a collection of plants.,2,1566831298617,NA,images/sunflower.png,NA,1,is big.,big,NA,main2
404,NA,images/bird-parade.png,8,NA,NA,That,NA,2,birds,Patricia,NA,yes,This one is also in the parade.,predicative,You say to your friend:,37,bird,NA,NA,NA,graduated_college,English,male,NA,NA,You see a parade of animals.,3,1566831298617,NA,images/goose.png,NA,1,is big.,big,NA,main2
403,swordfish,NA,8,warmup/goldfish.png,swordfish,This is a,NA,2,fish,mary,goldfish,NA,Please label the pictures below.,NA,NA,25,NA,NA,warmup/swordfish.jpg,fish,some_college,english,male,NA,fish,NA,1,1566831345548,1,NA,This is a,1,These are both,NA,goldfish,warmup1
403,pug,NA,8,warmup/great-dane.jpg,pug,This is a,NA,2,dogs,mary,great dane,NA,Please label the pictures below.,NA,NA,25,NA,NA,warmup/pug.jpg,dogs,some_college,english,male,NA,dogs,NA,2,1566831345548,1,NA,This is a,1,These are both,NA,great dane,warmup1
403,tree,NA,8,warmup/bonsai.jpg,redwood|sequoia,This is a,NA,2,trees,mary,bonsai,NA,Please label the pictures below.,NA,NA,25,NA,NA,warmup/sequoia.jpg,plants,some_college,english,male,NA,trees,NA,3,1566831345548,1,NA,This is a,1,These are both,NA,sapling,warmup1
403,tree,NA,8,warmup/bonsai.jpg,redwood|sequoia,This is a,NA,2,trees,mary,bonsai,NA,Please label the pictures below.,NA,NA,25,NA,NA,warmup/sequoia.jpg,plants,some_college,english,male,NA,trees,NA,3,1566831345548,2,NA,This is a,1,These are both,NA,sapling,warmup1
403,tree,NA,8,warmup/bonsai.jpg,redwood|sequoia,This is a,NA,2,trees,mary,bonsai,NA,Please label the pictures below.,NA,NA,25,NA,NA,warmup/sequoia.jpg,plants,some_college,english,male,NA,trees,NA,3,1566831345548,3,NA,This is a,1,These are both,NA,sapling,warmup1
403,redwood,NA,8,warmup/bonsai.jpg,redwood|sequoia,This is a,NA,2,trees,mary,bonsai,NA,Please label the pictures below.,NA,NA,25,NA,NA,warmup/sequoia.jpg,trees,some_college,english,male,NA,trees,NA,3,1566831345548,4,NA,This is a,1,These are both,NA,bonsai,warmup1
403,NA,images/dog-parade2.png,8,NA,NA,That,NA,2,dogs,mary,NA,NA,This one is also in the parade.,predicative,You say to your friend:,25,pug,NA,NA,NA,some_college,english,male,NA,NA,You see a parade of animals.,1,1566831345548,NA,images/pug.png,NA,1,is small.,small,NA,main1
403,NA,images/fish-parade.png,8,NA,NA,That,NA,2,fish,mary,NA,NA,This one is also in the parade.,predicative,You say to your friend:,25,fish,NA,NA,NA,some_college,english,male,NA,NA,You see a parade of animals.,2,1566831345548,NA,images/swordfish.png,NA,1,is big.,big,NA,main1
403,NA,images/tree-parade.png,8,NA,NA,That,NA,2,trees,mary,NA,NA,This one is also in the landscape.,predicative,You say to your friend:,25,tree,NA,NA,NA,some_college,english,male,NA,NA,You see the following items in a landscape.,3,1566831345548,NA,images/sequoia.png,NA,1,is big.,big,NA,main1
403,daisy,NA,8,warmup/peony.png,daisy,This is a,NA,2,flowers,mary,peony,NA,Please label the pictures below.,NA,NA,25,NA,NA,warmup/daisy.png,flowers,some_college,english,male,NA,flowers,NA,1,1566831345548,1,NA,This is a,1,These are both,NA,rose,warmup2
403,daisy,NA,8,warmup/peony.png,daisy,This is a,NA,2,flowers,mary,peony,NA,Please label the pictures below.,NA,NA,25,NA,NA,warmup/daisy.png,flowers,some_college,english,male,NA,flowers,NA,1,1566831345548,2,NA,This is a,1,These are both,NA,rose,warmup2
403,daisy,NA,8,warmup/peony.png,daisy,This is a,NA,2,flowers,mary,peony,NA,Please label the pictures below.,NA,NA,25,NA,NA,warmup/daisy.png,flowers,some_college,english,male,NA,flowers,NA,1,1566831345548,3,NA,This is a,1,These are both,NA,rose,warmup2
403,daisy,NA,8,warmup/peony.png,daisy,This is a,NA,2,flowers,mary,peony,NA,Please label the pictures below.,NA,NA,25,NA,NA,warmup/daisy.png,flowers,some_college,english,male,NA,flowers,NA,1,1566831345548,4,NA,This is a,1,These are both,NA,peony,warmup2
403,chihuahua,NA,8,warmup/doberman.png,chihuahua,This is a,NA,2,dogs,mary,doberman,NA,Please label the pictures below.,NA,NA,25,NA,NA,warmup/chihuahua.jpg,dogs,some_college,english,male,NA,dogs,NA,2,1566831345548,1,NA,This is a,1,These are both,NA,rotweiller,warmup2
403,chihuahua,NA,8,warmup/doberman.png,chihuahua,This is a,NA,2,dogs,mary,doberman,NA,Please label the pictures below.,NA,NA,25,NA,NA,warmup/chihuahua.jpg,dogs,some_college,english,male,NA,dogs,NA,2,1566831345548,2,NA,This is a,1,These are both,NA,doberman,warmup2
403,bass,NA,8,warmup/clownfish.jpg,tuna,This is a,NA,2,fish,mary,clownfish,NA,Please label the pictures below.,NA,NA,25,NA,NA,warmup/tuna.jpg,fish,some_college,english,male,NA,fish,NA,3,1566831345548,1,NA,This is a,1,These are both,NA,clownfish,warmup2
403,tuna,NA,8,warmup/clownfish.jpg,tuna,This is a,NA,2,fish,mary,clownfish,NA,Please label the pictures below.,NA,NA,25,NA,NA,warmup/tuna.jpg,fish,some_college,english,male,NA,fish,NA,3,1566831345548,2,NA,This is a,1,These are both,NA,clownfish,warmup2
403,NA,images/flower-parade.png,8,NA,NA,That,NA,2,flowers,mary,NA,NA,This one is also in the collection.,predicative,You say to your friend:,25,daisy,NA,NA,NA,some_college,english,male,NA,NA,You see a collection of plants.,1,1566831345548,NA,images/daisy.png,NA,1,is small.,small,NA,main2
403,NA,images/fish-parade2.png,8,NA,NA,That,NA,2,fish,mary,NA,NA,This one is also in the parade.,predicative,You say to your friend:,25,clownfish,NA,NA,NA,some_college,english,male,NA,NA,You see a parade of animals.,2,1566831345548,NA,images/clownfish.png,NA,1,is small.,small,NA,main2
403,NA,images/dog-parade.png,8,NA,NA,That,NA,2,dogs,mary,NA,NA,This one is also in the parade.,predicative,You say to your friend:,25,doberman,NA,NA,NA,some_college,english,male,NA,NA,You see a parade of animals.,3,1566831345548,NA,images/doberman.png,NA,1,is big.,big,NA,main2
402,flower,NA,8,warmup/peony.png,daisy,This is a,No,2,flowers,mary,peony,yes,Please label the pictures below.,NA,NA,30,NA,"Good study, easy to follow.",warmup/daisy.png,flowers,some_college,English,male,NA,flowers,NA,1,1566831291493,1,NA,This is a,1,These are both,NA,rose,warmup1
402,daisy,NA,8,warmup/peony.png,daisy,This is a,No,2,flowers,mary,peony,yes,Please label the pictures below.,NA,NA,30,NA,"Good study, easy to follow.",warmup/daisy.png,flowers,some_college,English,male,NA,flowers,NA,1,1566831291493,2,NA,This is a,1,These are both,NA,peony,warmup1
402,dandellion,NA,8,warmup/sunflower.png,dandelion,This is a,No,2,flowers,mary,sunflower,yes,Please label the pictures below.,NA,NA,30,NA,"Good study, easy to follow.",warmup/dandelion.jpg,flowers,some_college,English,male,NA,flowers,NA,2,1566831291493,1,NA,This is a,1,These are both,NA,sunflower,warmup1
402,dandelion,NA,8,warmup/sunflower.png,dandelion,This is a,No,2,flowers,mary,sunflower,yes,Please label the pictures below.,NA,NA,30,NA,"Good study, easy to follow.",warmup/dandelion.jpg,flowers,some_college,English,male,NA,flowers,NA,2,1566831291493,2,NA,This is a,1,These are both,NA,sunflower,warmup1
402,Tree,NA,8,warmup/bonsai.jpg,redwood|sequoia,This is a,No,2,trees,mary,bonsai,yes,Please label the pictures below.,NA,NA,30,NA,"Good study, easy to follow.",warmup/sequoia.jpg,trees,some_college,English,male,NA,trees,NA,3,1566831291493,1,NA,This is a,1,These are both,NA,bonsai,warmup1
402,redwood,NA,8,warmup/bonsai.jpg,redwood|sequoia,This is a,No,2,trees,mary,bonsai,yes,Please label the pictures below.,NA,NA,30,NA,"Good study, easy to follow.",warmup/sequoia.jpg,trees,some_college,English,male,NA,trees,NA,3,1566831291493,2,NA,This is a,1,These are both,NA,bonsai,warmup1
402,NA,images/flower-parade.png,8,NA,NA,That,No,2,flowers,mary,NA,yes,This one is also in the collection.,predicative,You say to your friend:,30,peony,"Good study, easy to follow.",NA,NA,some_college,English,male,NA,NA,You see a collection of plants.,1,1566831291493,NA,images/peony.png,NA,1,is big.,big,NA,main1
402,NA,images/tree-parade.png,8,NA,NA,That,No,2,trees,mary,NA,yes,This one is also in the landscape.,predicative,You say to your friend:,30,bonsai,"Good study, easy to follow.",NA,NA,some_college,English,male,NA,NA,You see the following items in a landscape.,2,1566831291493,NA,images/bonsai.png,NA,1,is small.,small,NA,main1
402,NA,images/flower-parade2.png,8,NA,NA,That,No,2,flowers,mary,NA,yes,This one is also in the collection.,predicative,You say to your friend:,30,sunflower,"Good study, easy to follow.",NA,NA,some_college,English,male,NA,NA,You see a collection of plants.,3,1566831291493,NA,images/sunflower.png,NA,1,is big.,big,NA,main1
402,carp,NA,8,warmup/clownfish.jpg,tuna,This is a,No,2,fish,mary,clownfish,yes,Please label the pictures below.,NA,NA,30,NA,"Good study, easy to follow.",warmup/tuna.jpg,fish,some_college,English,male,NA,fish,NA,1,1566831291493,1,NA,This is a,1,These are both,NA,fish,warmup2
402,tuna,NA,8,warmup/clownfish.jpg,tuna,This is a,No,2,fish,mary,clownfish,yes,Please label the pictures below.,NA,NA,30,NA,"Good study, easy to follow.",warmup/tuna.jpg,fish,some_college,English,male,NA,fish,NA,1,1566831291493,2,NA,This is a,1,These are both,NA,clownfish,warmup2
402,chihuahua,NA,8,warmup/doberman.png,chihuahua,This is a,No,2,dogs,mary,doberman,yes,Please label the pictures below.,NA,NA,30,NA,"Good study, easy to follow.",warmup/chihuahua.jpg,dogs,some_college,English,male,NA,dogs,NA,2,1566831291493,1,NA,This is a,1,These are both,NA,rottweiler,warmup2
402,chihuahua,NA,8,warmup/doberman.png,chihuahua,This is a,No,2,dogs,mary,doberman,yes,Please label the pictures below.,NA,NA,30,NA,"Good study, easy to follow.",warmup/chihuahua.jpg,dogs,some_college,English,male,NA,dogs,NA,2,1566831291493,2,NA,This is a,1,These are both,NA,doberman,warmup2
402,swordfish,NA,8,warmup/goldfish.png,swordfish,This is a,No,2,fish,mary,goldfish,yes,Please label the pictures below.,NA,NA,30,NA,"Good study, easy to follow.",warmup/swordfish.jpg,fish,some_college,English,male,NA,fish,NA,3,1566831291493,1,NA,This is a,1,These are both,NA,goldfish,warmup2
402,NA,images/fish-parade.png,8,NA,NA,That,No,2,fish,mary,NA,yes,This one is also in the parade.,predicative,You say to your friend:,30,swordfish,"Good study, easy to follow.",NA,NA,some_college,English,male,NA,NA,You see a parade of animals.,1,1566831291493,NA,images/swordfish.png,NA,1,is big.,big,NA,main2
402,NA,images/fish-parade2.png,8,NA,NA,That,No,2,fish,mary,NA,yes,This one is also in the parade.,predicative,You say to your friend:,30,clownfish,"Good study, easy to follow.",NA,NA,some_college,English,male,NA,NA,You see a parade of animals.,2,1566831291493,NA,images/clownfish.png,NA,1,is small.,small,NA,main2
402,NA,images/dog-parade.png,8,NA,NA,That,No,2,dogs,mary,NA,yes,This one is also in the parade.,predicative,You say to your friend:,30,chihuahua,"Good study, easy to follow.",NA,NA,some_college,English,male,NA,NA,You see a parade of animals.,3,1566831291493,NA,images/chihuahua.png,NA,1,is small.,small,NA,main2
401,sword fish,NA,8,warmup/goldfish.png,swordfish,This is a,no,1,fish,mary,goldfish,yes,Please label the pictures below.,NA,NA,26,NA,na,warmup/swordfish.jpg,fish,graduated_college,english,female,NA,fish,NA,1,1566831309590,1,NA,This is a,1,These are both,NA,gold fish,warmup1
401,swordfish,NA,8,warmup/goldfish.png,swordfish,This is a,no,1,fish,mary,goldfish,yes,Please label the pictures below.,NA,NA,26,NA,na,warmup/swordfish.jpg,fish,graduated_college,english,female,NA,fish,NA,1,1566831309590,2,NA,This is a,1,These are both,NA,goldfish,warmup1
401,daisy,NA,8,warmup/peony.png,daisy,This is a,no,1,flowers,mary,peony,yes,Please label the pictures below.,NA,NA,26,NA,na,warmup/daisy.png,flowers,graduated_college,english,female,NA,flowers,NA,2,1566831309590,1,NA,This is a,1,These are both,NA,rose,warmup1
401,daisy,NA,8,warmup/peony.png,daisy,This is a,no,1,flowers,mary,peony,yes,Please label the pictures below.,NA,NA,26,NA,na,warmup/daisy.png,flowers,graduated_college,english,female,NA,flowers,NA,2,1566831309590,2,NA,This is a,1,These are both,NA,peony,warmup1
401,oaktree,NA,8,warmup/bonsai.jpg,redwood|sequoia,This is a,no,1,trees,mary,bonsai,yes,Please label the pictures below.,NA,NA,26,NA,na,warmup/sequoia.jpg,trees,graduated_college,english,female,NA,trees,NA,3,1566831309590,1,NA,This is a,1,These are both,NA,sappling,warmup1
401,redwood,NA,8,warmup/bonsai.jpg,redwood|sequoia,This is a,no,1,trees,mary,bonsai,yes,Please label the pictures below.,NA,NA,26,NA,na,warmup/sequoia.jpg,trees,graduated_college,english,female,NA,trees,NA,3,1566831309590,2,NA,This is a,1,These are both,NA,bonsai,warmup1
401,NA,images/tree-parade.png,8,NA,NA,That,no,1,trees,mary,NA,yes,This one is also in the landscape.,predicative,You say to your friend:,26,tree,na,NA,NA,graduated_college,english,female,NA,NA,You see the following items in a landscape.,1,1566831309590,NA,images/bonsai.png,NA,1,is small.,small,NA,main1
401,NA,images/flower-parade.png,8,NA,NA,That,no,1,flowers,mary,NA,yes,This one is also in the collection.,predicative,You say to your friend:,26,flower,na,NA,NA,graduated_college,english,female,NA,NA,You see a collection of plants.,2,1566831309590,NA,images/daisy.png,NA,1,is small.,small,NA,main1
401,NA,images/fish-parade.png,8,NA,NA,That,no,1,fish,mary,NA,yes,This one is also in the parade.,predicative,You say to your friend:,26,fish,na,NA,NA,graduated_college,english,female,NA,NA,You see a parade of animals.,3,1566831309590,NA,images/swordfish.png,NA,1,is big.,big,NA,main1
401,pug,NA,8,warmup/great-dane.jpg,pug,This is a,no,1,dogs,mary,great dane,yes,Please label the pictures below.,NA,NA,26,NA,na,warmup/pug.jpg,dogs,graduated_college,english,female,NA,dogs,NA,1,1566831309590,1,NA,This is a,1,These are both,NA,doberman,warmup2
401,pug,NA,8,warmup/great-dane.jpg,pug,This is a,no,1,dogs,mary,great dane,yes,Please label the pictures below.,NA,NA,26,NA,na,warmup/pug.jpg,dogs,graduated_college,english,female,NA,dogs,NA,1,1566831309590,2,NA,This is a,1,These are both,NA,great dane,warmup2
401,bass,NA,8,warmup/clownfish.jpg,tuna,This is a,no,1,fish,mary,clownfish,yes,Please label the pictures below.,NA,NA,26,NA,na,warmup/tuna.jpg,fish,graduated_college,english,female,NA,fish,NA,2,1566831309590,1,NA,This is a,1,These are both,NA,clownfish,warmup2
401,tuna,NA,8,warmup/clownfish.jpg,tuna,This is a,no,1,fish,mary,clownfish,yes,Please label the pictures below.,NA,NA,26,NA,na,warmup/tuna.jpg,fish,graduated_college,english,female,NA,fish,NA,2,1566831309590,2,NA,This is a,1,These are both,NA,clownfish,warmup2
401,chiuaua,NA,8,warmup/doberman.png,chihuahua,This is a,no,1,dogs,mary,doberman,yes,Please label the pictures below.,NA,NA,26,NA,na,warmup/chihuahua.jpg,dogs,graduated_college,english,female,NA,dogs,NA,3,1566831309590,1,NA,This is a,1,These are both,NA,doberman,warmup2
401,chihuahua,NA,8,warmup/doberman.png,chihuahua,This is a,no,1,dogs,mary,doberman,yes,Please label the pictures below.,NA,NA,26,NA,na,warmup/chihuahua.jpg,dogs,graduated_college,english,female,NA,dogs,NA,3,1566831309590,2,NA,This is a,1,These are both,NA,doberman,warmup2
401,NA,images/dog-parade.png,8,NA,NA,That,no,1,dogs,mary,NA,yes,This one is also in the parade.,predicative,You say to your friend:,26,dog,na,NA,NA,graduated_college,english,female,NA,NA,You see a parade of animals.,1,1566831309590,NA,images/doberman.png,NA,1,is big.,big,NA,main2
401,NA,images/dog-parade2.png,8,NA,NA,That,no,1,dogs,mary,NA,yes,This one is also in the parade.,predicative,You say to your friend:,26,dog,na,NA,NA,graduated_college,english,female,NA,NA,You see a parade of animals.,2,1566831309590,NA,images/pug.png,NA,1,is small.,small,NA,main2
401,NA,images/fish-parade2.png,8,NA,NA,That,no,1,fish,mary,NA,yes,This one is also in the parade.,predicative,You say to your friend:,26,fish,na,NA,NA,graduated_college,english,female,NA,NA,You see a parade of animals.,3,1566831309590,NA,images/tuna.png,NA,1,is big.,big,NA,main2
400,tree,NA,8,warmup/bonsai.jpg,redwood|sequoia,This is a,No.,0,trees,patricia,bonsai,yes,Please label the pictures below.,NA,NA,26,NA,"It was structured in kind of an annoying way, with having to get it wrong then be corrected, but it also kinda seems like it has to be that way. But if it doesn't then it's annoying. Also, having to put a person's name in lower case was troubling.",warmup/sequoia.jpg,trees,graduated_high_school,English,male,NA,trees,NA,1,1566831248969,1,NA,This is a,1,These are both,NA,seedling,warmup1
400,tree,NA,8,warmup/bonsai.jpg,redwood|sequoia,This is a,No.,0,trees,patricia,bonsai,yes,Please label the pictures below.,NA,NA,26,NA,"It was structured in kind of an annoying way, with having to get it wrong then be corrected, but it also kinda seems like it has to be that way. But if it doesn't then it's annoying. Also, having to put a person's name in lower case was troubling.",warmup/sequoia.jpg,trees,graduated_high_school,English,male,NA,trees,NA,1,1566831248969,2,NA,This is a,1,These are both,NA,seedling,warmup1
