submission_id,response1,size_adj,startDate,context_picture,experiment_id,picture2,correct1,question1,problems,enjoyment,hit_id,item,botresponse,assignment_id,correct2,understand,text,condition,sentence,age,response,comments,picture1,response3,size_target,education,worker_id,languages,sex,RT,correct3,context,trial_number,startTime,attempts,picture,fairprice,question2,response2,adj_cond,trial_name
100,dog,NA,Wed Jul 31 2019 11:53:05 GMT-0400 (Eastern Daylight Time),NA,5,images/great-dane.jpg,chihuahua,This is a ,no,2,335VBRURDJOE9EVRVJQFWHY22NYE93,dogs,mary,3SLE99ER0O1YVMZDFSNQWHQYZNOZB9,great dane,yes,Please label the pictures below.,NA,NA,26,NA,,images/chihuahua.jpg,dogs,NA,graduated_college,AE63GABJL0FGJ,English,female,NA,dogs,NA,1,1564588385838,1,NA,1.10,These are both,dog,NA,warmup
100,chihuahua,NA,Wed Jul 31 2019 11:53:05 GMT-0400 (Eastern Daylight Time),NA,5,images/great-dane.jpg,chihuahua,This is a ,no,2,335VBRURDJOE9EVRVJQFWHY22NYE93,dogs,mary,3SLE99ER0O1YVMZDFSNQWHQYZNOZB9,great dane,yes,Please label the pictures below.,NA,NA,26,NA,,images/chihuahua.jpg,dogs,NA,graduated_college,AE63GABJL0FGJ,English,female,NA,dogs,NA,1,1564588385838,2,NA,1.10,These are both,great dane,NA,warmup
100,swordfish,NA,Wed Jul 31 2019 11:53:05 GMT-0400 (Eastern Daylight Time),NA,5,images/goldfish.png,swordfish,This is a ,no,2,335VBRURDJOE9EVRVJQFWHY22NYE93,fish,mary,3SLE99ER0O1YVMZDFSNQWHQYZNOZB9,goldfish,yes,Please label the pictures below.,NA,NA,26,NA,,images/swordfish.jpg,fish,NA,graduated_college,AE63GABJL0FGJ,English,female,NA,fish,NA,2,1564588385838,1,NA,1.10,These are both,goldfish,NA,warmup
100,monkey,NA,Wed Jul 31 2019 11:53:05 GMT-0400 (Eastern Daylight Time),NA,5,images/gorilla.jpg,spider monkey,This is a ,no,2,335VBRURDJOE9EVRVJQFWHY22NYE93,primates,mary,3SLE99ER0O1YVMZDFSNQWHQYZNOZB9,gorilla,yes,Please label the pictures below.,NA,NA,26,NA,,images/spidermonkey.jpg,apes,NA,graduated_college,AE63GABJL0FGJ,English,female,NA,monkeys|apes|primates,NA,3,1564588385838,1,NA,1.10,These are both,gorilla,NA,warmup
100,spider monkey,NA,Wed Jul 31 2019 11:53:05 GMT-0400 (Eastern Daylight Time),NA,5,images/gorilla.jpg,spider monkey,This is a ,no,2,335VBRURDJOE9EVRVJQFWHY22NYE93,primates,mary,3SLE99ER0O1YVMZDFSNQWHQYZNOZB9,gorilla,yes,Please label the pictures below.,NA,NA,26,NA,,images/spidermonkey.jpg,apes,NA,graduated_college,AE63GABJL0FGJ,English,female,NA,monkeys|apes|primates,NA,3,1564588385838,2,NA,1.10,These are both,gorilla,NA,warmup
100,NA,small,Wed Jul 31 2019 11:53:05 GMT-0400 (Eastern Daylight Time),images/monkey-parade-small.png,5,NA,NA,That's a small ,no,2,335VBRURDJOE9EVRVJQFWHY22NYE93,primates,mary,3SLE99ER0O1YVMZDFSNQWHQYZNOZB9,NA,yes,Another animal belongs to the group.,prenominal,You say to your friend:,26,spider monkey,,NA,NA,small,graduated_college,AE63GABJL0FGJ,English,female,,NA,You see a group of animals.,1,1564588385838,NA,images/spidermonkey.jpg,1.10,,NA,congruent,main
100,NA,small,Wed Jul 31 2019 11:53:05 GMT-0400 (Eastern Daylight Time),images/dog_parade.png,5,NA,NA,That's a small ,no,2,335VBRURDJOE9EVRVJQFWHY22NYE93,dogs,mary,3SLE99ER0O1YVMZDFSNQWHQYZNOZB9,NA,yes,Another animal belongs to the group.,prenominal,You say to your friend:,26,pug,,NA,NA,big,graduated_college,AE63GABJL0FGJ,English,female,,NA,You see a group of animals.,2,1564588385838,NA,images/great-dane-s.jpg,1.10,,NA,incongruent,main
100,NA,small,Wed Jul 31 2019 11:53:05 GMT-0400 (Eastern Daylight Time),images/fish-parade.png,5,NA,NA,That's a small ,no,2,335VBRURDJOE9EVRVJQFWHY22NYE93,fish,mary,3SLE99ER0O1YVMZDFSNQWHQYZNOZB9,NA,yes,Another animal belongs to the group.,prenominal,You say to your friend:,26,swordfish,,NA,NA,big,graduated_college,AE63GABJL0FGJ,English,female,,NA,You see a group of animals.,3,1564588385838,NA,images/swordfish-s.jpg,1.10,,NA,incongruent,main
100,tree,NA,Wed Jul 31 2019 11:53:05 GMT-0400 (Eastern Daylight Time),NA,5,images/bonsai.jpg,redwood|sequoia,This is a ,no,2,335VBRURDJOE9EVRVJQFWHY22NYE93,trees,mary,3SLE99ER0O1YVMZDFSNQWHQYZNOZB9,bonsai,yes,Please label the pictures below.,NA,NA,26,NA,,images/sequoia.jpg,trees,NA,graduated_college,AE63GABJL0FGJ,English,female,NA,trees,NA,1,1564588385838,1,NA,1.10,These are both,sapling,NA,warmup
100,redwood,NA,Wed Jul 31 2019 11:53:05 GMT-0400 (Eastern Daylight Time),NA,5,images/bonsai.jpg,redwood|sequoia,This is a ,no,2,335VBRURDJOE9EVRVJQFWHY22NYE93,trees,mary,3SLE99ER0O1YVMZDFSNQWHQYZNOZB9,bonsai,yes,Please label the pictures below.,NA,NA,26,NA,,images/sequoia.jpg,trees,NA,graduated_college,AE63GABJL0FGJ,English,female,NA,trees,NA,1,1564588385838,2,NA,1.10,These are both,bonsai,NA,warmup
100,swan,NA,Wed Jul 31 2019 11:53:05 GMT-0400 (Eastern Daylight Time),NA,5,images/colibri.jpg,swan,This is a ,no,2,335VBRURDJOE9EVRVJQFWHY22NYE93,birds,mary,3SLE99ER0O1YVMZDFSNQWHQYZNOZB9,hummingbird,yes,Please label the pictures below.,NA,NA,26,NA,,images/swan.jpg,birds,NA,graduated_college,AE63GABJL0FGJ,English,female,NA,birds,NA,2,1564588385838,1,NA,1.10,These are both,hummingbird,NA,warmup
100,dandelion,NA,Wed Jul 31 2019 11:53:05 GMT-0400 (Eastern Daylight Time),NA,5,images/sunflower.png,daisy,This is a ,no,2,335VBRURDJOE9EVRVJQFWHY22NYE93,flowers,mary,3SLE99ER0O1YVMZDFSNQWHQYZNOZB9,sunflower,yes,Please label the pictures below.,NA,NA,26,NA,,images/daisy.png,flowers,NA,graduated_college,AE63GABJL0FGJ,English,female,NA,flowers,NA,3,1564588385838,1,NA,1.10,These are both,sunflower,NA,warmup
100,daisy,NA,Wed Jul 31 2019 11:53:05 GMT-0400 (Eastern Daylight Time),NA,5,images/sunflower.png,daisy,This is a ,no,2,335VBRURDJOE9EVRVJQFWHY22NYE93,flowers,mary,3SLE99ER0O1YVMZDFSNQWHQYZNOZB9,sunflower,yes,Please label the pictures below.,NA,NA,26,NA,,images/daisy.png,flowers,NA,graduated_college,AE63GABJL0FGJ,English,female,NA,flowers,NA,3,1564588385838,2,NA,1.10,These are both,sunflower,NA,warmup
100,NA,small,Wed Jul 31 2019 11:53:05 GMT-0400 (Eastern Daylight Time),images/flower-parade-small.png,5,NA,NA,That's a small ,no,2,335VBRURDJOE9EVRVJQFWHY22NYE93,flowers,mary,3SLE99ER0O1YVMZDFSNQWHQYZNOZB9,NA,yes,Another plant belongs to the group.,prenominal,You say to your friend:,26,daisy,,NA,NA,small,graduated_college,AE63GABJL0FGJ,English,female,,NA,You see a group of plants.,1,1564588385838,NA,images/daisy.png,1.10,,NA,congruent,main
100,NA,big,Wed Jul 31 2019 11:53:05 GMT-0400 (Eastern Daylight Time),images/bird-parade-small.png,5,NA,NA,That's a big ,no,2,335VBRURDJOE9EVRVJQFWHY22NYE93,birds,mary,3SLE99ER0O1YVMZDFSNQWHQYZNOZB9,NA,yes,Another animal bleongs to the group.,prenominal,You say to your friend:,26,hummingbird,,NA,NA,small,graduated_college,AE63GABJL0FGJ,English,female,,NA,You see a group of animals.,2,1564588385838,NA,images/colibri-b.jpg,1.10,,NA,incongruent,main
100,NA,big,Wed Jul 31 2019 11:53:05 GMT-0400 (Eastern Daylight Time),images/tree-parade.png,5,NA,NA,That's a big ,no,2,335VBRURDJOE9EVRVJQFWHY22NYE93,trees,mary,3SLE99ER0O1YVMZDFSNQWHQYZNOZB9,NA,yes,Another plant belongs to the group.,prenominal,You say to your friend:,26,redwood,,NA,NA,big,graduated_college,AE63GABJL0FGJ,English,female,,NA,You see a group of plants.,3,1564588385838,NA,images/sequoia.jpg,1.10,,NA,congruent,main
104,swordfish,NA,Wed Jul 31 2019 08:54:21 GMT-0700 (Pacific Daylight Time),NA,5,images/goldfish.png,swordfish,This is a ,no,1,34YWR3PJ28Y5JKYVQSXERVIGFPEX0I,fish,Linda,3NG53N1RLW7LFKZ0P75EEHYJHIVP8E,goldfish,yes,Please label the pictures below.,NA,NA,44,NA,thanks,images/swordfish.jpg,fish,NA,graduated_high_school,A3PRZRK9IC5CBI,English,male,NA,fish,NA,1,1564588461507,1,NA,2,These are both,goldfish,NA,warmup
104,monkey,NA,Wed Jul 31 2019 08:54:21 GMT-0700 (Pacific Daylight Time),NA,5,images/gorilla.jpg,spider monkey,This is a ,no,1,34YWR3PJ28Y5JKYVQSXERVIGFPEX0I,primates,Linda,3NG53N1RLW7LFKZ0P75EEHYJHIVP8E,gorilla,yes,Please label the pictures below.,NA,NA,44,NA,thanks,images/spidermonkey.jpg,animals,NA,graduated_high_school,A3PRZRK9IC5CBI,English,male,NA,monkeys|apes|primates,NA,2,1564588461507,1,NA,2,These are both,gorilla,NA,warmup
104,monkey,NA,Wed Jul 31 2019 08:54:21 GMT-0700 (Pacific Daylight Time),NA,5,images/gorilla.jpg,spider monkey,This is a ,no,1,34YWR3PJ28Y5JKYVQSXERVIGFPEX0I,primates,Linda,3NG53N1RLW7LFKZ0P75EEHYJHIVP8E,gorilla,yes,Please label the pictures below.,NA,NA,44,NA,thanks,images/spidermonkey.jpg,primates,NA,graduated_high_school,A3PRZRK9IC5CBI,English,male,NA,monkeys|apes|primates,NA,2,1564588461507,2,NA,2,These are both,gorilla,NA,warmup
104,monkey,NA,Wed Jul 31 2019 08:54:21 GMT-0700 (Pacific Daylight Time),NA,5,images/gorilla.jpg,spider monkey,This is a ,no,1,34YWR3PJ28Y5JKYVQSXERVIGFPEX0I,primates,Linda,3NG53N1RLW7LFKZ0P75EEHYJHIVP8E,gorilla,yes,Please label the pictures below.,NA,NA,44,NA,thanks,images/spidermonkey.jpg,primates,NA,graduated_high_school,A3PRZRK9IC5CBI,English,male,NA,monkeys|apes|primates,NA,2,1564588461507,3,NA,2,These are both,gorilla,NA,warmup
104,monkey,NA,Wed Jul 31 2019 08:54:21 GMT-0700 (Pacific Daylight Time),NA,5,images/gorilla.jpg,spider monkey,This is a ,no,1,34YWR3PJ28Y5JKYVQSXERVIGFPEX0I,primates,Linda,3NG53N1RLW7LFKZ0P75EEHYJHIVP8E,gorilla,yes,Please label the pictures below.,NA,NA,44,NA,thanks,images/spidermonkey.jpg,primates,NA,graduated_high_school,A3PRZRK9IC5CBI,English,male,NA,monkeys|apes|primates,NA,2,1564588461507,4,NA,2,These are both,gorilla,NA,warmup
104,spider monkey,NA,Wed Jul 31 2019 08:54:21 GMT-0700 (Pacific Daylight Time),NA,5,images/gorilla.jpg,spider monkey,This is a ,no,1,34YWR3PJ28Y5JKYVQSXERVIGFPEX0I,primates,Linda,3NG53N1RLW7LFKZ0P75EEHYJHIVP8E,gorilla,yes,Please label the pictures below.,NA,NA,44,NA,thanks,images/spidermonkey.jpg,primates,NA,graduated_high_school,A3PRZRK9IC5CBI,English,male,NA,monkeys|apes|primates,NA,2,1564588461507,5,NA,2,These are both,gorilla,NA,warmup
104,dog,NA,Wed Jul 31 2019 08:54:21 GMT-0700 (Pacific Daylight Time),NA,5,images/great-dane.jpg,chihuahua,This is a ,no,1,34YWR3PJ28Y5JKYVQSXERVIGFPEX0I,dogs,Linda,3NG53N1RLW7LFKZ0P75EEHYJHIVP8E,great dane,yes,Please label the pictures below.,NA,NA,44,NA,thanks,images/chihuahua.jpg,dog,NA,graduated_high_school,A3PRZRK9IC5CBI,English,male,NA,dogs,NA,3,1564588461507,1,NA,2,These are both,dog,NA,warmup
104,chihuahua,NA,Wed Jul 31 2019 08:54:21 GMT-0700 (Pacific Daylight Time),NA,5,images/great-dane.jpg,chihuahua,This is a ,no,1,34YWR3PJ28Y5JKYVQSXERVIGFPEX0I,dogs,Linda,3NG53N1RLW7LFKZ0P75EEHYJHIVP8E,great dane,yes,Please label the pictures below.,NA,NA,44,NA,thanks,images/chihuahua.jpg,dogs,NA,graduated_high_school,A3PRZRK9IC5CBI,English,male,NA,dogs,NA,3,1564588461507,2,NA,2,These are both,great dane,NA,warmup
104,NA,small,Wed Jul 31 2019 08:54:21 GMT-0700 (Pacific Daylight Time),images/monkey-parade.png,5,NA,NA,That ,no,1,34YWR3PJ28Y5JKYVQSXERVIGFPEX0I,primates,Linda,3NG53N1RLW7LFKZ0P75EEHYJHIVP8E,NA,yes,Another animal belongs to the group.,predicative,You say to your friend:,44,monkey,thanks,NA,NA,big,graduated_high_school,A3PRZRK9IC5CBI,English,male,,NA,You see a group of animals.,1,1564588461507,NA,images/gorilla_s.jpg,2, is small.,NA,incongruent,main
104,NA,big,Wed Jul 31 2019 08:54:21 GMT-0700 (Pacific Daylight Time),images/fish-parade.png,5,NA,NA,That ,no,1,34YWR3PJ28Y5JKYVQSXERVIGFPEX0I,fish,Linda,3NG53N1RLW7LFKZ0P75EEHYJHIVP8E,NA,yes,Another animal belongs to the group.,predicative,You say to your friend:,44,swordfish,thanks,NA,NA,small,graduated_high_school,A3PRZRK9IC5CBI,English,male,,NA,You see a group of animals.,2,1564588461507,NA,images/goldfish-b.png,2, is big.,NA,incongruent,main
104,NA,small,Wed Jul 31 2019 08:54:21 GMT-0700 (Pacific Daylight Time),images/dog_parade_small.png,5,NA,NA,That ,no,1,34YWR3PJ28Y5JKYVQSXERVIGFPEX0I,dogs,Linda,3NG53N1RLW7LFKZ0P75EEHYJHIVP8E,NA,yes,Another animal belongs to the group.,predicative,You say to your friend:,44,chiuaha,thanks,NA,NA,small,graduated_high_school,A3PRZRK9IC5CBI,English,male,,NA,You see a group of animals.,3,1564588461507,NA,images/chihuahua.jpg,2, is small.,NA,congruent,main
104,daisy,NA,Wed Jul 31 2019 08:54:21 GMT-0700 (Pacific Daylight Time),NA,5,images/sunflower.png,daisy,This is a ,no,1,34YWR3PJ28Y5JKYVQSXERVIGFPEX0I,flowers,Linda,3NG53N1RLW7LFKZ0P75EEHYJHIVP8E,sunflower,yes,Please label the pictures below.,NA,NA,44,NA,thanks,images/daisy.png,flowers,NA,graduated_high_school,A3PRZRK9IC5CBI,English,male,NA,flowers,NA,1,1564588461507,1,NA,2,These are both,sunflower,NA,warmup
104,swan,NA,Wed Jul 31 2019 08:54:21 GMT-0700 (Pacific Daylight Time),NA,5,images/colibri.jpg,swan,This is a ,no,1,34YWR3PJ28Y5JKYVQSXERVIGFPEX0I,birds,Linda,3NG53N1RLW7LFKZ0P75EEHYJHIVP8E,hummingbird,yes,Please label the pictures below.,NA,NA,44,NA,thanks,images/swan.jpg,birds,NA,graduated_high_school,A3PRZRK9IC5CBI,English,male,NA,birds,NA,2,1564588461507,1,NA,2,These are both,hummingbird,NA,warmup
104,oak tree,NA,Wed Jul 31 2019 08:54:21 GMT-0700 (Pacific Daylight Time),NA,5,images/bonsai.jpg,redwood|sequoia,This is a ,no,1,34YWR3PJ28Y5JKYVQSXERVIGFPEX0I,trees,Linda,3NG53N1RLW7LFKZ0P75EEHYJHIVP8E,bonsai,yes,Please label the pictures below.,NA,NA,44,NA,thanks,images/sequoia.jpg,trees,NA,graduated_high_school,A3PRZRK9IC5CBI,English,male,NA,trees,NA,3,1564588461507,1,NA,2,These are both,bonsai,NA,warmup
104,redwood,NA,Wed Jul 31 2019 08:54:21 GMT-0700 (Pacific Daylight Time),NA,5,images/bonsai.jpg,redwood|sequoia,This is a ,no,1,34YWR3PJ28Y5JKYVQSXERVIGFPEX0I,trees,Linda,3NG53N1RLW7LFKZ0P75EEHYJHIVP8E,bonsai,yes,Please label the pictures below.,NA,NA,44,NA,thanks,images/sequoia.jpg,trees,NA,graduated_high_school,A3PRZRK9IC5CBI,English,male,NA,trees,NA,3,1564588461507,2,NA,2,These are both,bonsai,NA,warmup
104,NA,big,Wed Jul 31 2019 08:54:21 GMT-0700 (Pacific Daylight Time),images/tree-parade.png,5,NA,NA,That ,no,1,34YWR3PJ28Y5JKYVQSXERVIGFPEX0I,trees,Linda,3NG53N1RLW7LFKZ0P75EEHYJHIVP8E,NA,yes,Another plant belongs to the group.,predicative,You say to your friend:,44,redwood,thanks,NA,NA,big,graduated_high_school,A3PRZRK9IC5CBI,English,male,,NA,You see a group of plants.,1,1564588461507,NA,images/sequoia.jpg,2, is big.,NA,congruent,main
104,NA,big,Wed Jul 31 2019 08:54:21 GMT-0700 (Pacific Daylight Time),images/bird-parade.png,5,NA,NA,That ,no,1,34YWR3PJ28Y5JKYVQSXERVIGFPEX0I,birds,Linda,3NG53N1RLW7LFKZ0P75EEHYJHIVP8E,NA,yes,Another animal belongs to the group.,predicative,You say to your friend:,44,swan,thanks,NA,NA,big,graduated_high_school,A3PRZRK9IC5CBI,English,male,,NA,You see a group of animals.,2,1564588461507,NA,images/swan.jpg,2, is big.,NA,congruent,main
104,NA,big,Wed Jul 31 2019 08:54:21 GMT-0700 (Pacific Daylight Time),images/flower-parade-small.png,5,NA,NA,That ,no,1,34YWR3PJ28Y5JKYVQSXERVIGFPEX0I,flowers,Linda,3NG53N1RLW7LFKZ0P75EEHYJHIVP8E,NA,yes,Another plant belongs to the group.,predicative,You say to your friend:,44,sunflower,thanks,NA,NA,small,graduated_high_school,A3PRZRK9IC5CBI,English,male,,NA,You see a group of plants.,3,1564588461507,NA,images/daisy-b.png,2, is big.,NA,incongruent,main
111,daisy,NA,Wed Jul 31 2019 07:56:26 GMT-0800 (GMT-08:00),NA,5,images/sunflower.png,daisy,This is a ,,1,3PZDSVZ3J55H6E2S7NX75WHVUNL4NM,flowers,mary,3L4PIM1GQU4L636XF37XIPM0BFNRYN,sunflower,yes,Please label the pictures below.,NA,NA,29,NA,,images/daisy.png,flowers,NA,graduated_college,A3RLDROGYUMEVZ,English ,male,NA,flowers,NA,1,1564588586332,1,NA,2,These are both,sunflower,NA,warmup
111,chihuahua,NA,Wed Jul 31 2019 07:56:26 GMT-0800 (GMT-08:00),NA,5,images/great-dane.jpg,chihuahua,This is a ,,1,3PZDSVZ3J55H6E2S7NX75WHVUNL4NM,dogs,mary,3L4PIM1GQU4L636XF37XIPM0BFNRYN,great dane,yes,Please label the pictures below.,NA,NA,29,NA,,images/chihuahua.jpg,dogs,NA,graduated_college,A3RLDROGYUMEVZ,English ,male,NA,dogs,NA,2,1564588586332,1,NA,2,These are both,great dane,NA,warmup
111,pine,NA,Wed Jul 31 2019 07:56:26 GMT-0800 (GMT-08:00),NA,5,images/bonsai.jpg,redwood|sequoia,This is a ,,1,3PZDSVZ3J55H6E2S7NX75WHVUNL4NM,trees,mary,3L4PIM1GQU4L636XF37XIPM0BFNRYN,bonsai,yes,Please label the pictures below.,NA,NA,29,NA,,images/sequoia.jpg,trees,NA,graduated_college,A3RLDROGYUMEVZ,English ,male,NA,trees,NA,3,1564588586332,1,NA,2,These are both,tree,NA,warmup
111,redwood,NA,Wed Jul 31 2019 07:56:26 GMT-0800 (GMT-08:00),NA,5,images/bonsai.jpg,redwood|sequoia,This is a ,,1,3PZDSVZ3J55H6E2S7NX75WHVUNL4NM,trees,mary,3L4PIM1GQU4L636XF37XIPM0BFNRYN,bonsai,yes,Please label the pictures below.,NA,NA,29,NA,,images/sequoia.jpg,trees,NA,graduated_college,A3RLDROGYUMEVZ,English ,male,NA,trees,NA,3,1564588586332,2,NA,2,These are both,bonsai,NA,warmup
111,NA,big,Wed Jul 31 2019 07:56:26 GMT-0800 (GMT-08:00),images/tree-parade.png,5,NA,NA,That ,,1,3PZDSVZ3J55H6E2S7NX75WHVUNL4NM,trees,mary,3L4PIM1GQU4L636XF37XIPM0BFNRYN,NA,yes,Another plant belongs to the group.,predicative,You say to your friend:,29,plant,,NA,NA,small,graduated_college,A3RLDROGYUMEVZ,English ,male,,NA,You see a group of plants.,1,1564588586332,NA,images/bonsai-b.png,2, is big.,NA,incongruent,main
111,NA,big,Wed Jul 31 2019 07:56:26 GMT-0800 (GMT-08:00),images/dog_parade_small.png,5,NA,NA,That ,,1,3PZDSVZ3J55H6E2S7NX75WHVUNL4NM,dogs,mary,3L4PIM1GQU4L636XF37XIPM0BFNRYN,NA,yes,Another animal belongs to the group.,predicative,You say to your friend:,29,dog,,NA,NA,small,graduated_college,A3RLDROGYUMEVZ,English ,male,,NA,You see a group of animals.,2,1564588586332,NA,images/chihuahua-b.jpg,2, is big.,NA,incongruent,main
111,NA,big,Wed Jul 31 2019 07:56:26 GMT-0800 (GMT-08:00),images/flower-parade.png,5,NA,NA,That ,,1,3PZDSVZ3J55H6E2S7NX75WHVUNL4NM,flowers,mary,3L4PIM1GQU4L636XF37XIPM0BFNRYN,NA,yes,Another plant belongs to the group.,predicative,You say to your friend:,29,flower,,NA,NA,big,graduated_college,A3RLDROGYUMEVZ,English ,male,,NA,You see a group of plants.,3,1564588586332,NA,images/sunflower.png,2, is big.,NA,congruent,main
111,monkey,NA,Wed Jul 31 2019 07:56:26 GMT-0800 (GMT-08:00),NA,5,images/gorilla.jpg,spider monkey,This is a ,,1,3PZDSVZ3J55H6E2S7NX75WHVUNL4NM,primates,mary,3L4PIM1GQU4L636XF37XIPM0BFNRYN,gorilla,yes,Please label the pictures below.,NA,NA,29,NA,,images/spidermonkey.jpg,apes,NA,graduated_college,A3RLDROGYUMEVZ,English ,male,NA,monkeys|apes|primates,NA,1,1564588586332,1,NA,2,These are both,baboon,NA,warmup
111,spider monkey,NA,Wed Jul 31 2019 07:56:26 GMT-0800 (GMT-08:00),NA,5,images/gorilla.jpg,spider monkey,This is a ,,1,3PZDSVZ3J55H6E2S7NX75WHVUNL4NM,primates,mary,3L4PIM1GQU4L636XF37XIPM0BFNRYN,gorilla,yes,Please label the pictures below.,NA,NA,29,NA,,images/spidermonkey.jpg,apes,NA,graduated_college,A3RLDROGYUMEVZ,English ,male,NA,monkeys|apes|primates,NA,1,1564588586332,2,NA,2,These are both,gorilla,NA,warmup
111,shark,NA,Wed Jul 31 2019 07:56:26 GMT-0800 (GMT-08:00),NA,5,images/goldfish.png,swordfish,This is a ,,1,3PZDSVZ3J55H6E2S7NX75WHVUNL4NM,fish,mary,3L4PIM1GQU4L636XF37XIPM0BFNRYN,goldfish,yes,Please label the pictures below.,NA,NA,29,NA,,images/swordfish.jpg,fishes,NA,graduated_college,A3RLDROGYUMEVZ,English ,male,NA,fish,NA,2,1564588586332,1,NA,2,These are both,fish,NA,warmup
111,swordfish,NA,Wed Jul 31 2019 07:56:26 GMT-0800 (GMT-08:00),NA,5,images/goldfish.png,swordfish,This is a ,,1,3PZDSVZ3J55H6E2S7NX75WHVUNL4NM,fish,mary,3L4PIM1GQU4L636XF37XIPM0BFNRYN,goldfish,yes,Please label the pictures below.,NA,NA,29,NA,,images/swordfish.jpg,fish,NA,graduated_college,A3RLDROGYUMEVZ,English ,male,NA,fish,NA,2,1564588586332,2,NA,2,These are both,goldfish,NA,warmup
111,duck,NA,Wed Jul 31 2019 07:56:26 GMT-0800 (GMT-08:00),NA,5,images/colibri.jpg,swan,This is a ,,1,3PZDSVZ3J55H6E2S7NX75WHVUNL4NM,birds,mary,3L4PIM1GQU4L636XF37XIPM0BFNRYN,hummingbird,yes,Please label the pictures below.,NA,NA,29,NA,,images/swan.jpg,birds,NA,graduated_college,A3RLDROGYUMEVZ,English ,male,NA,birds,NA,3,1564588586332,1,NA,2,These are both,hummingbird,NA,warmup
111,swan,NA,Wed Jul 31 2019 07:56:26 GMT-0800 (GMT-08:00),NA,5,images/colibri.jpg,swan,This is a ,,1,3PZDSVZ3J55H6E2S7NX75WHVUNL4NM,birds,mary,3L4PIM1GQU4L636XF37XIPM0BFNRYN,hummingbird,yes,Please label the pictures below.,NA,NA,29,NA,,images/swan.jpg,birds,NA,graduated_college,A3RLDROGYUMEVZ,English ,male,NA,birds,NA,3,1564588586332,2,NA,2,These are both,hummingbird,NA,warmup
111,NA,small,Wed Jul 31 2019 07:56:26 GMT-0800 (GMT-08:00),images/fish-parade.png,5,NA,NA,That ,,1,3PZDSVZ3J55H6E2S7NX75WHVUNL4NM,fish,mary,3L4PIM1GQU4L636XF37XIPM0BFNRYN,NA,yes,Another animal belongs to the group.,predicative,You say to your friend:,29,fish,,NA,NA,big,graduated_college,A3RLDROGYUMEVZ,English ,male,,NA,You see a group of animals.,1,1564588586332,NA,images/swordfish-s.jpg,2, is small.,NA,incongruent,main
111,NA,small,Wed Jul 31 2019 07:56:26 GMT-0800 (GMT-08:00),images/bird-parade-small.png,5,NA,NA,That ,,1,3PZDSVZ3J55H6E2S7NX75WHVUNL4NM,birds,mary,3L4PIM1GQU4L636XF37XIPM0BFNRYN,NA,yes,Another animal bleongs to the group.,predicative,You say to your friend:,29,bird,,NA,NA,small,graduated_college,A3RLDROGYUMEVZ,English ,male,,NA,You see a group of animals.,2,1564588586332,NA,images/colibri.jpg,2, is small.,NA,congruent,main
111,NA,big,Wed Jul 31 2019 07:56:26 GMT-0800 (GMT-08:00),images/monkey-parade.png,5,NA,NA,That ,,1,3PZDSVZ3J55H6E2S7NX75WHVUNL4NM,primates,mary,3L4PIM1GQU4L636XF37XIPM0BFNRYN,NA,yes,Another animal belongs to the group.,predicative,You say to your friend:,29,ape,,NA,NA,big,graduated_college,A3RLDROGYUMEVZ,English ,male,,NA,You see a group of animals.,3,1564588586332,NA,images/gorilla.jpg,2, is big.,NA,congruent,main
112,swordfish,NA,Wed Jul 31 2019 11:56:39 GMT-0400 (Eastern Daylight Time),NA,5,images/goldfish.png,swordfish,This is a ,,1,3PKVGQTFIH8IJJ84P12VU5QCQL8YRO,fish,Margaret,30BXRYBRP5L4S4XU4XDFJOZEDYOHWG,goldfish,,Please label the pictures below.,NA,NA,,NA,,images/swordfish.jpg,fish,NA,some_college,A2ETXCA9X5P484,english,,NA,fish,NA,1,1564588599669,1,NA,2,These are both,goldfish,NA,warmup
112,monkey,NA,Wed Jul 31 2019 11:56:39 GMT-0400 (Eastern Daylight Time),NA,5,images/gorilla.jpg,spider monkey,This is a ,,1,3PKVGQTFIH8IJJ84P12VU5QCQL8YRO,primates,Margaret,30BXRYBRP5L4S4XU4XDFJOZEDYOHWG,gorilla,,Please label the pictures below.,NA,NA,,NA,,images/spidermonkey.jpg,mammels,NA,some_college,A2ETXCA9X5P484,english,,NA,monkeys|apes|primates,NA,2,1564588599669,1,NA,2,These are both,gorilla,NA,warmup
112,monkey,NA,Wed Jul 31 2019 11:56:39 GMT-0400 (Eastern Daylight Time),NA,5,images/gorilla.jpg,spider monkey,This is a ,,1,3PKVGQTFIH8IJJ84P12VU5QCQL8YRO,primates,Margaret,30BXRYBRP5L4S4XU4XDFJOZEDYOHWG,gorilla,,Please label the pictures below.,NA,NA,,NA,,images/spidermonkey.jpg,apes,NA,some_college,A2ETXCA9X5P484,english,,NA,monkeys|apes|primates,NA,2,1564588599669,2,NA,2,These are both,gorilla,NA,warmup
112,monkey,NA,Wed Jul 31 2019 11:56:39 GMT-0400 (Eastern Daylight Time),NA,5,images/gorilla.jpg,spider monkey,This is a ,,1,3PKVGQTFIH8IJJ84P12VU5QCQL8YRO,primates,Margaret,30BXRYBRP5L4S4XU4XDFJOZEDYOHWG,gorilla,,Please label the pictures below.,NA,NA,,NA,,images/spidermonkey.jpg,apes,NA,some_college,A2ETXCA9X5P484,english,,NA,monkeys|apes|primates,NA,2,1564588599669,3,NA,2,These are both,gorilla,NA,warmup
112,monkey,NA,Wed Jul 31 2019 11:56:39 GMT-0400 (Eastern Daylight Time),NA,5,images/gorilla.jpg,spider monkey,This is a ,,1,3PKVGQTFIH8IJJ84P12VU5QCQL8YRO,primates,Margaret,30BXRYBRP5L4S4XU4XDFJOZEDYOHWG,gorilla,,Please label the pictures below.,NA,NA,,NA,,images/spidermonkey.jpg,apes,NA,some_college,A2ETXCA9X5P484,english,,NA,monkeys|apes|primates,NA,2,1564588599669,4,NA,2,These are both,gorilla,NA,warmup
112,monkey,NA,Wed Jul 31 2019 11:56:39 GMT-0400 (Eastern Daylight Time),NA,5,images/gorilla.jpg,spider monkey,This is a ,,1,3PKVGQTFIH8IJJ84P12VU5QCQL8YRO,primates,Margaret,30BXRYBRP5L4S4XU4XDFJOZEDYOHWG,gorilla,,Please label the pictures below.,NA,NA,,NA,,images/spidermonkey.jpg,apes,NA,some_college,A2ETXCA9X5P484,english,,NA,monkeys|apes|primates,NA,2,1564588599669,5,NA,2,These are both,gorilla,NA,warmup
112,monkey,NA,Wed Jul 31 2019 11:56:39 GMT-0400 (Eastern Daylight Time),NA,5,images/gorilla.jpg,spider monkey,This is a ,,1,3PKVGQTFIH8IJJ84P12VU5QCQL8YRO,primates,Margaret,30BXRYBRP5L4S4XU4XDFJOZEDYOHWG,gorilla,,Please label the pictures below.,NA,NA,,NA,,images/spidermonkey.jpg,apes,NA,some_college,A2ETXCA9X5P484,english,,NA,monkeys|apes|primates,NA,2,1564588599669,6,NA,2,These are both,gorilla,NA,warmup
112,monkey,NA,Wed Jul 31 2019 11:56:39 GMT-0400 (Eastern Daylight Time),NA,5,images/gorilla.jpg,spider monkey,This is a ,,1,3PKVGQTFIH8IJJ84P12VU5QCQL8YRO,primates,Margaret,30BXRYBRP5L4S4XU4XDFJOZEDYOHWG,gorilla,,Please label the pictures below.,NA,NA,,NA,,images/spidermonkey.jpg,apes,NA,some_college,A2ETXCA9X5P484,english,,NA,monkeys|apes|primates,NA,2,1564588599669,7,NA,2,These are both,gorilla,NA,warmup
112,monkey,NA,Wed Jul 31 2019 11:56:39 GMT-0400 (Eastern Daylight Time),NA,5,images/gorilla.jpg,spider monkey,This is a ,,1,3PKVGQTFIH8IJJ84P12VU5QCQL8YRO,primates,Margaret,30BXRYBRP5L4S4XU4XDFJOZEDYOHWG,gorilla,,Please label the pictures below.,NA,NA,,NA,,images/spidermonkey.jpg,monkeys,NA,some_college,A2ETXCA9X5P484,english,,NA,monkeys|apes|primates,NA,2,1564588599669,8,NA,2,These are both,gorilla,NA,warmup
112,monkey,NA,Wed Jul 31 2019 11:56:39 GMT-0400 (Eastern Daylight Time),NA,5,images/gorilla.jpg,spider monkey,This is a ,,1,3PKVGQTFIH8IJJ84P12VU5QCQL8YRO,primates,Margaret,30BXRYBRP5L4S4XU4XDFJOZEDYOHWG,gorilla,,Please label the pictures below.,NA,NA,,NA,,images/spidermonkey.jpg,monkeys,NA,some_college,A2ETXCA9X5P484,english,,NA,monkeys|apes|primates,NA,2,1564588599669,9,NA,2,These are both,gorilla,NA,warmup
112,spider monkey,NA,Wed Jul 31 2019 11:56:39 GMT-0400 (Eastern Daylight Time),NA,5,images/gorilla.jpg,spider monkey,This is a ,,1,3PKVGQTFIH8IJJ84P12VU5QCQL8YRO,primates,Margaret,30BXRYBRP5L4S4XU4XDFJOZEDYOHWG,gorilla,,Please label the pictures below.,NA,NA,,NA,,images/spidermonkey.jpg,apes,NA,some_college,A2ETXCA9X5P484,english,,NA,monkeys|apes|primates,NA,2,1564588599669,10,NA,2,These are both,gorilla,NA,warmup
112,swan,NA,Wed Jul 31 2019 11:56:39 GMT-0400 (Eastern Daylight Time),NA,5,images/colibri.jpg,swan,This is a ,,1,3PKVGQTFIH8IJJ84P12VU5QCQL8YRO,birds,Margaret,30BXRYBRP5L4S4XU4XDFJOZEDYOHWG,hummingbird,,Please label the pictures below.,NA,NA,,NA,,images/swan.jpg,birds,NA,some_college,A2ETXCA9X5P484,english,,NA,birds,NA,3,1564588599669,1,NA,2,These are both,humming bird,NA,warmup
112,swan,NA,Wed Jul 31 2019 11:56:39 GMT-0400 (Eastern Daylight Time),NA,5,images/colibri.jpg,swan,This is a ,,1,3PKVGQTFIH8IJJ84P12VU5QCQL8YRO,birds,Margaret,30BXRYBRP5L4S4XU4XDFJOZEDYOHWG,hummingbird,,Please label the pictures below.,NA,NA,,NA,,images/swan.jpg,birds,NA,some_college,A2ETXCA9X5P484,english,,NA,birds,NA,3,1564588599669,2,NA,2,These are both,hummingbird,NA,warmup
112,NA,big,Wed Jul 31 2019 11:56:39 GMT-0400 (Eastern Daylight Time),images/monkey-parade-small.png,5,NA,NA,That's a big ,,1,3PKVGQTFIH8IJJ84P12VU5QCQL8YRO,primates,Margaret,30BXRYBRP5L4S4XU4XDFJOZEDYOHWG,NA,,Another animal belongs to the group.,prenominal,You say to your friend:,,monkey,,NA,NA,small,some_college,A2ETXCA9X5P484,english,,,NA,You see a group of animals.,1,1564588599669,NA,images/spidermonkey-b.jpg,2,,NA,incongruent,main
112,NA,small,Wed Jul 31 2019 11:56:39 GMT-0400 (Eastern Daylight Time),images/fish-parade.png,5,NA,NA,That's a small ,,1,3PKVGQTFIH8IJJ84P12VU5QCQL8YRO,fish,Margaret,30BXRYBRP5L4S4XU4XDFJOZEDYOHWG,NA,,Another animal belongs to the group.,prenominal,You say to your friend:,,fish,,NA,NA,big,some_college,A2ETXCA9X5P484,english,,,NA,You see a group of animals.,2,1564588599669,NA,images/swordfish-s.jpg,2,,NA,incongruent,main
112,NA,small,Wed Jul 31 2019 11:56:39 GMT-0400 (Eastern Daylight Time),images/bird-parade-small.png,5,NA,NA,That's a small ,,1,3PKVGQTFIH8IJJ84P12VU5QCQL8YRO,birds,Margaret,30BXRYBRP5L4S4XU4XDFJOZEDYOHWG,NA,,Another animal bleongs to the group.,prenominal,You say to your friend:,,bird,,NA,NA,small,some_college,A2ETXCA9X5P484,english,,,NA,You see a group of animals.,3,1564588599669,NA,images/colibri.jpg,2,,NA,congruent,main
112,chiwawa,NA,Wed Jul 31 2019 11:56:39 GMT-0400 (Eastern Daylight Time),NA,5,images/great-dane.jpg,chihuahua,This is a ,,1,3PKVGQTFIH8IJJ84P12VU5QCQL8YRO,dogs,Margaret,30BXRYBRP5L4S4XU4XDFJOZEDYOHWG,great dane,,Please label the pictures below.,NA,NA,,NA,,images/chihuahua.jpg,dogs,NA,some_college,A2ETXCA9X5P484,english,,NA,dogs,NA,1,1564588599669,1,NA,2,These are both,greyhound,NA,warmup
112,chihuahua,NA,Wed Jul 31 2019 11:56:39 GMT-0400 (Eastern Daylight Time),NA,5,images/great-dane.jpg,chihuahua,This is a ,,1,3PKVGQTFIH8IJJ84P12VU5QCQL8YRO,dogs,Margaret,30BXRYBRP5L4S4XU4XDFJOZEDYOHWG,great dane,,Please label the pictures below.,NA,NA,,NA,,images/chihuahua.jpg,dogs,NA,some_college,A2ETXCA9X5P484,english,,NA,dogs,NA,1,1564588599669,2,NA,2,These are both,great dane,NA,warmup
112,daisy,NA,Wed Jul 31 2019 11:56:39 GMT-0400 (Eastern Daylight Time),NA,5,images/sunflower.png,daisy,This is a ,,1,3PKVGQTFIH8IJJ84P12VU5QCQL8YRO,flowers,Margaret,30BXRYBRP5L4S4XU4XDFJOZEDYOHWG,sunflower,,Please label the pictures below.,NA,NA,,NA,,images/daisy.png,flowers,NA,some_college,A2ETXCA9X5P484,english,,NA,flowers,NA,2,1564588599669,1,NA,2,These are both,sunflower,NA,warmup
112,pine,NA,Wed Jul 31 2019 11:56:39 GMT-0400 (Eastern Daylight Time),NA,5,images/bonsai.jpg,redwood|sequoia,This is a ,,1,3PKVGQTFIH8IJJ84P12VU5QCQL8YRO,trees,Margaret,30BXRYBRP5L4S4XU4XDFJOZEDYOHWG,bonsai,,Please label the pictures below.,NA,NA,,NA,,images/sequoia.jpg,trees,NA,some_college,A2ETXCA9X5P484,english,,NA,trees,NA,3,1564588599669,1,NA,2,These are both,hhh,NA,warmup
112,redwood,NA,Wed Jul 31 2019 11:56:39 GMT-0400 (Eastern Daylight Time),NA,5,images/bonsai.jpg,redwood|sequoia,This is a ,,1,3PKVGQTFIH8IJJ84P12VU5QCQL8YRO,trees,Margaret,30BXRYBRP5L4S4XU4XDFJOZEDYOHWG,bonsai,,Please label the pictures below.,NA,NA,,NA,,images/sequoia.jpg,trees,NA,some_college,A2ETXCA9X5P484,english,,NA,trees,NA,3,1564588599669,2,NA,2,These are both,bonsai,NA,warmup
112,NA,small,Wed Jul 31 2019 11:56:39 GMT-0400 (Eastern Daylight Time),images/tree-parade.png,5,NA,NA,That's a small ,,1,3PKVGQTFIH8IJJ84P12VU5QCQL8YRO,trees,Margaret,30BXRYBRP5L4S4XU4XDFJOZEDYOHWG,NA,,Another plant belongs to the group.,prenominal,You say to your friend:,,tree,,NA,NA,small,some_college,A2ETXCA9X5P484,english,,,NA,You see a group of plants.,1,1564588599669,NA,images/bonsai.jpg,2,,NA,congruent,main
112,NA,big,Wed Jul 31 2019 11:56:39 GMT-0400 (Eastern Daylight Time),images/flower-parade.png,5,NA,NA,That's a big ,,1,3PKVGQTFIH8IJJ84P12VU5QCQL8YRO,flowers,Margaret,30BXRYBRP5L4S4XU4XDFJOZEDYOHWG,NA,,Another plant belongs to the group.,prenominal,You say to your friend:,,flower,,NA,NA,big,some_college,A2ETXCA9X5P484,english,,,NA,You see a group of plants.,2,1564588599669,NA,images/sunflower.png,2,,NA,congruent,main
112,NA,small,Wed Jul 31 2019 11:56:39 GMT-0400 (Eastern Daylight Time),images/dog_parade.png,5,NA,NA,That's a small ,,1,3PKVGQTFIH8IJJ84P12VU5QCQL8YRO,dogs,Margaret,30BXRYBRP5L4S4XU4XDFJOZEDYOHWG,NA,,Another animal belongs to the group.,prenominal,You say to your friend:,,dog,,NA,NA,big,some_college,A2ETXCA9X5P484,english,,,NA,You see a group of animals.,3,1564588599669,NA,images/great-dane-s.jpg,2,,NA,incongruent,main
118,dandelion,NA,Wed Jul 31 2019 11:55:59 GMT-0400 (Eastern Daylight Time),NA,5,images/sunflower.png,daisy,This is a ,no,1,33KMQD9OFJ2PMGSOTEEPCBFFLA677Y,flowers,patricia,323Q6SJS8J42HIBZE83FF0DEIVZFHH,sunflower,yes,Please label the pictures below.,NA,NA,33,NA,,images/daisy.png,plants,NA,graduated_college,A2XK2XQU5D3TER,English,male,NA,flowers,NA,1,1564588559832,1,NA,1.00,These are both,sunflower,NA,warmup
118,daisy,NA,Wed Jul 31 2019 11:55:59 GMT-0400 (Eastern Daylight Time),NA,5,images/sunflower.png,daisy,This is a ,no,1,33KMQD9OFJ2PMGSOTEEPCBFFLA677Y,flowers,patricia,323Q6SJS8J42HIBZE83FF0DEIVZFHH,sunflower,yes,Please label the pictures below.,NA,NA,33,NA,,images/daisy.png,flowers,NA,graduated_college,A2XK2XQU5D3TER,English,male,NA,flowers,NA,1,1564588559832,2,NA,1.00,These are both,sunflower,NA,warmup
118,monkey,NA,Wed Jul 31 2019 11:55:59 GMT-0400 (Eastern Daylight Time),NA,5,images/gorilla.jpg,spider monkey,This is a ,no,1,33KMQD9OFJ2PMGSOTEEPCBFFLA677Y,primates,patricia,323Q6SJS8J42HIBZE83FF0DEIVZFHH,gorilla,yes,Please label the pictures below.,NA,NA,33,NA,,images/spidermonkey.jpg,mamals,NA,graduated_college,A2XK2XQU5D3TER,English,male,NA,monkeys|apes|primates,NA,2,1564588559832,1,NA,1.00,These are both,gorilla,NA,warmup
118,spider monkey,NA,Wed Jul 31 2019 11:55:59 GMT-0400 (Eastern Daylight Time),NA,5,images/gorilla.jpg,spider monkey,This is a ,no,1,33KMQD9OFJ2PMGSOTEEPCBFFLA677Y,primates,patricia,323Q6SJS8J42HIBZE83FF0DEIVZFHH,gorilla,yes,Please label the pictures below.,NA,NA,33,NA,,images/spidermonkey.jpg,monkeys,NA,graduated_college,A2XK2XQU5D3TER,English,male,NA,monkeys|apes|primates,NA,2,1564588559832,2,NA,1.00,These are both,gorilla,NA,warmup
118,oak,NA,Wed Jul 31 2019 11:55:59 GMT-0400 (Eastern Daylight Time),NA,5,images/bonsai.jpg,redwood|sequoia,This is a ,no,1,33KMQD9OFJ2PMGSOTEEPCBFFLA677Y,trees,patricia,323Q6SJS8J42HIBZE83FF0DEIVZFHH,bonsai,yes,Please label the pictures below.,NA,NA,33,NA,,images/sequoia.jpg,trees,NA,graduated_college,A2XK2XQU5D3TER,English,male,NA,trees,NA,3,1564588559832,1,NA,1.00,These are both,bonsai,NA,warmup
118,redwood,NA,Wed Jul 31 2019 11:55:59 GMT-0400 (Eastern Daylight Time),NA,5,images/bonsai.jpg,redwood|sequoia,This is a ,no,1,33KMQD9OFJ2PMGSOTEEPCBFFLA677Y,trees,patricia,323Q6SJS8J42HIBZE83FF0DEIVZFHH,bonsai,yes,Please label the pictures below.,NA,NA,33,NA,,images/sequoia.jpg,trees,NA,graduated_college,A2XK2XQU5D3TER,English,male,NA,trees,NA,3,1564588559832,2,NA,1.00,These are both,bonsai,NA,warmup
118,NA,small,Wed Jul 31 2019 11:55:59 GMT-0400 (Eastern Daylight Time),images/flower-parade-small.png,5,NA,NA,That's a small ,no,1,33KMQD9OFJ2PMGSOTEEPCBFFLA677Y,flowers,patricia,323Q6SJS8J42HIBZE83FF0DEIVZFHH,NA,yes,Another plant belongs to the group.,prenominal,You say to your friend:,33,daisy,,NA,NA,small,graduated_college,A2XK2XQU5D3TER,English,male,,NA,You see a group of plants.,1,1564588559832,NA,images/daisy.png,1.00,,NA,congruent,main
118,NA,small,Wed Jul 31 2019 11:55:59 GMT-0400 (Eastern Daylight Time),images/tree-parade.png,5,NA,NA,That's a small ,no,1,33KMQD9OFJ2PMGSOTEEPCBFFLA677Y,trees,patricia,323Q6SJS8J42HIBZE83FF0DEIVZFHH,NA,yes,Another plant belongs to the group.,prenominal,You say to your friend:,33,redwood,,NA,NA,big,graduated_college,A2XK2XQU5D3TER,English,male,,NA,You see a group of plants.,2,1564588559832,NA,images/sequoia-s.jpg,1.00,,NA,incongruent,main
118,NA,big,Wed Jul 31 2019 11:55:59 GMT-0400 (Eastern Daylight Time),images/monkey-parade.png,5,NA,NA,That's a big ,no,1,33KMQD9OFJ2PMGSOTEEPCBFFLA677Y,primates,patricia,323Q6SJS8J42HIBZE83FF0DEIVZFHH,NA,yes,Another animal belongs to the group.,prenominal,You say to your friend:,33,gorilla,,NA,NA,big,graduated_college,A2XK2XQU5D3TER,English,male,,NA,You see a group of animals.,3,1564588559832,NA,images/gorilla.jpg,1.00,,NA,congruent,main
118,marlin,NA,Wed Jul 31 2019 11:55:59 GMT-0400 (Eastern Daylight Time),NA,5,images/goldfish.png,swordfish,This is a ,no,1,33KMQD9OFJ2PMGSOTEEPCBFFLA677Y,fish,patricia,323Q6SJS8J42HIBZE83FF0DEIVZFHH,goldfish,yes,Please label the pictures below.,NA,NA,33,NA,,images/swordfish.jpg,fish,NA,graduated_college,A2XK2XQU5D3TER,English,male,NA,fish,NA,1,1564588559832,1,NA,1.00,These are both,goldfish,NA,warmup
118,swordfish,NA,Wed Jul 31 2019 11:55:59 GMT-0400 (Eastern Daylight Time),NA,5,images/goldfish.png,swordfish,This is a ,no,1,33KMQD9OFJ2PMGSOTEEPCBFFLA677Y,fish,patricia,323Q6SJS8J42HIBZE83FF0DEIVZFHH,goldfish,yes,Please label the pictures below.,NA,NA,33,NA,,images/swordfish.jpg,fish,NA,graduated_college,A2XK2XQU5D3TER,English,male,NA,fish,NA,1,1564588559832,2,NA,1.00,These are both,goldfish,NA,warmup
118,swan,NA,Wed Jul 31 2019 11:55:59 GMT-0400 (Eastern Daylight Time),NA,5,images/colibri.jpg,swan,This is a ,no,1,33KMQD9OFJ2PMGSOTEEPCBFFLA677Y,birds,patricia,323Q6SJS8J42HIBZE83FF0DEIVZFHH,hummingbird,yes,Please label the pictures below.,NA,NA,33,NA,,images/swan.jpg,birds,NA,graduated_college,A2XK2XQU5D3TER,English,male,NA,birds,NA,2,1564588559832,1,NA,1.00,These are both,hummingbird,NA,warmup
118,chiwawa,NA,Wed Jul 31 2019 11:55:59 GMT-0400 (Eastern Daylight Time),NA,5,images/great-dane.jpg,chihuahua,This is a ,no,1,33KMQD9OFJ2PMGSOTEEPCBFFLA677Y,dogs,patricia,323Q6SJS8J42HIBZE83FF0DEIVZFHH,great dane,yes,Please label the pictures below.,NA,NA,33,NA,,images/chihuahua.jpg,dogs,NA,graduated_college,A2XK2XQU5D3TER,English,male,NA,dogs,NA,3,1564588559832,1,NA,1.00,These are both,dane,NA,warmup
118,chihuahua,NA,Wed Jul 31 2019 11:55:59 GMT-0400 (Eastern Daylight Time),NA,5,images/great-dane.jpg,chihuahua,This is a ,no,1,33KMQD9OFJ2PMGSOTEEPCBFFLA677Y,dogs,patricia,323Q6SJS8J42HIBZE83FF0DEIVZFHH,great dane,yes,Please label the pictures below.,NA,NA,33,NA,,images/chihuahua.jpg,dogs,NA,graduated_college,A2XK2XQU5D3TER,English,male,NA,dogs,NA,3,1564588559832,2,NA,1.00,These are both,great dane,NA,warmup
118,NA,big,Wed Jul 31 2019 11:55:59 GMT-0400 (Eastern Daylight Time),images/dog_parade.png,5,NA,NA,That's a big ,no,1,33KMQD9OFJ2PMGSOTEEPCBFFLA677Y,dogs,patricia,323Q6SJS8J42HIBZE83FF0DEIVZFHH,NA,yes,Another animal belongs to the group.,prenominal,You say to your friend:,33,great dane,,NA,NA,big,graduated_college,A2XK2XQU5D3TER,English,male,,NA,You see a group of animals.,1,1564588559832,NA,images/great-dane.jpg,1.00,,NA,congruent,main
118,NA,big,Wed Jul 31 2019 11:55:59 GMT-0400 (Eastern Daylight Time),images/fish-parade.png,5,NA,NA,That's a big ,no,1,33KMQD9OFJ2PMGSOTEEPCBFFLA677Y,fish,patricia,323Q6SJS8J42HIBZE83FF0DEIVZFHH,NA,yes,Another animal belongs to the group.,prenominal,You say to your friend:,33,goldfish,,NA,NA,small,graduated_college,A2XK2XQU5D3TER,English,male,,NA,You see a group of animals.,2,1564588559832,NA,images/goldfish-b.png,1.00,,NA,incongruent,main
118,NA,big,Wed Jul 31 2019 11:55:59 GMT-0400 (Eastern Daylight Time),images/bird-parade-small.png,5,NA,NA,That's a big ,no,1,33KMQD9OFJ2PMGSOTEEPCBFFLA677Y,birds,patricia,323Q6SJS8J42HIBZE83FF0DEIVZFHH,NA,yes,Another animal bleongs to the group.,prenominal,You say to your friend:,33,hummingbird,,NA,NA,small,graduated_college,A2XK2XQU5D3TER,English,male,,NA,You see a group of animals.,3,1564588559832,NA,images/colibri-b.jpg,1.00,,NA,incongruent,main
123,Tree,NA,Wed Jul 31 2019 11:52:45 GMT-0400 (Eastern Daylight Time),NA,5,images/bonsai.jpg,redwood|sequoia,This is a ,no,2,335VBRURDJOE9EVRVJQFWHY22NYE93,trees,margaret,3CPLWGV3MPNLQ46XEKY0AOOZ19DN96,bonsai,,Please label the pictures below.,NA,NA,,NA,,images/sequoia.jpg,Plants,NA,graduated_college,AVK1TZJ6OT9HY,English,,NA,trees,NA,1,1564588365922,1,NA,1.27,These are both,Plant,NA,warmup
123,redwood,NA,Wed Jul 31 2019 11:52:45 GMT-0400 (Eastern Daylight Time),NA,5,images/bonsai.jpg,redwood|sequoia,This is a ,no,2,335VBRURDJOE9EVRVJQFWHY22NYE93,trees,margaret,3CPLWGV3MPNLQ46XEKY0AOOZ19DN96,bonsai,,Please label the pictures below.,NA,NA,,NA,,images/sequoia.jpg,tress,NA,graduated_college,AVK1TZJ6OT9HY,English,,NA,trees,NA,1,1564588365922,2,NA,1.27,These are both,bonsai,NA,warmup
123,redwood,NA,Wed Jul 31 2019 11:52:45 GMT-0400 (Eastern Daylight Time),NA,5,images/bonsai.jpg,redwood|sequoia,This is a ,no,2,335VBRURDJOE9EVRVJQFWHY22NYE93,trees,margaret,3CPLWGV3MPNLQ46XEKY0AOOZ19DN96,bonsai,,Please label the pictures below.,NA,NA,,NA,,images/sequoia.jpg,trees,NA,graduated_college,AVK1TZJ6OT9HY,English,,NA,trees,NA,1,1564588365922,3,NA,1.27,These are both,bonsai,NA,warmup
123,monkey,NA,Wed Jul 31 2019 11:52:45 GMT-0400 (Eastern Daylight Time),NA,5,images/gorilla.jpg,spider monkey,This is a ,no,2,335VBRURDJOE9EVRVJQFWHY22NYE93,primates,margaret,3CPLWGV3MPNLQ46XEKY0AOOZ19DN96,gorilla,,Please label the pictures below.,NA,NA,,NA,,images/spidermonkey.jpg,mammals,NA,graduated_college,AVK1TZJ6OT9HY,English,,NA,monkeys|apes|primates,NA,2,1564588365922,1,NA,1.27,These are both,gorilla,NA,warmup
123,spider monkey,NA,Wed Jul 31 2019 11:52:45 GMT-0400 (Eastern Daylight Time),NA,5,images/gorilla.jpg,spider monkey,This is a ,no,2,335VBRURDJOE9EVRVJQFWHY22NYE93,primates,margaret,3CPLWGV3MPNLQ46XEKY0AOOZ19DN96,gorilla,,Please label the pictures below.,NA,NA,,NA,,images/spidermonkey.jpg,apes,NA,graduated_college,AVK1TZJ6OT9HY,English,,NA,monkeys|apes|primates,NA,2,1564588365922,2,NA,1.27,These are both,gorilla,NA,warmup
123,flower,NA,Wed Jul 31 2019 11:52:45 GMT-0400 (Eastern Daylight Time),NA,5,images/sunflower.png,daisy,This is a ,no,2,335VBRURDJOE9EVRVJQFWHY22NYE93,flowers,margaret,3CPLWGV3MPNLQ46XEKY0AOOZ19DN96,sunflower,,Please label the pictures below.,NA,NA,,NA,,images/daisy.png,flowers,NA,graduated_college,AVK1TZJ6OT9HY,English,,NA,flowers,NA,3,1564588365922,1,NA,1.27,These are both,sunflower,NA,warmup
123,daisy,NA,Wed Jul 31 2019 11:52:45 GMT-0400 (Eastern Daylight Time),NA,5,images/sunflower.png,daisy,This is a ,no,2,335VBRURDJOE9EVRVJQFWHY22NYE93,flowers,margaret,3CPLWGV3MPNLQ46XEKY0AOOZ19DN96,sunflower,,Please label the pictures below.,NA,NA,,NA,,images/daisy.png,flowers,NA,graduated_college,AVK1TZJ6OT9HY,English,,NA,flowers,NA,3,1564588365922,2,NA,1.27,These are both,sunflower,NA,warmup
123,NA,small,Wed Jul 31 2019 11:52:45 GMT-0400 (Eastern Daylight Time),images/tree-parade.png,5,NA,NA,That ,no,2,335VBRURDJOE9EVRVJQFWHY22NYE93,trees,margaret,3CPLWGV3MPNLQ46XEKY0AOOZ19DN96,NA,,Another plant belongs to the group.,predicative,You say to your friend:,,redwood,,NA,NA,big,graduated_college,AVK1TZJ6OT9HY,English,,,NA,You see a group of plants.,1,1564588365922,NA,images/sequoia-s.jpg,1.27, is small.,NA,incongruent,main
123,NA,big,Wed Jul 31 2019 11:52:45 GMT-0400 (Eastern Daylight Time),images/flower-parade.png,5,NA,NA,That ,no,2,335VBRURDJOE9EVRVJQFWHY22NYE93,flowers,margaret,3CPLWGV3MPNLQ46XEKY0AOOZ19DN96,NA,,Another plant belongs to the group.,predicative,You say to your friend:,,sunflower,,NA,NA,big,graduated_college,AVK1TZJ6OT9HY,English,,,NA,You see a group of plants.,2,1564588365922,NA,images/sunflower.png,1.27, is big.,NA,congruent,main
123,NA,big,Wed Jul 31 2019 11:52:45 GMT-0400 (Eastern Daylight Time),images/monkey-parade-small.png,5,NA,NA,That ,no,2,335VBRURDJOE9EVRVJQFWHY22NYE93,primates,margaret,3CPLWGV3MPNLQ46XEKY0AOOZ19DN96,NA,,Another animal belongs to the group.,predicative,You say to your friend:,,monkey,,NA,NA,small,graduated_college,AVK1TZJ6OT9HY,English,,,NA,You see a group of animals.,3,1564588365922,NA,images/spidermonkey-b.jpg,1.27, is big.,NA,incongruent,main
123,swan,NA,Wed Jul 31 2019 11:52:45 GMT-0400 (Eastern Daylight Time),NA,5,images/colibri.jpg,swan,This is a ,no,2,335VBRURDJOE9EVRVJQFWHY22NYE93,birds,margaret,3CPLWGV3MPNLQ46XEKY0AOOZ19DN96,hummingbird,,Please label the pictures below.,NA,NA,,NA,,images/swan.jpg,birds,NA,graduated_college,AVK1TZJ6OT9HY,English,,NA,birds,NA,1,1564588365922,1,NA,1.27,These are both,wood pecker,NA,warmup
123,swan,NA,Wed Jul 31 2019 11:52:45 GMT-0400 (Eastern Daylight Time),NA,5,images/colibri.jpg,swan,This is a ,no,2,335VBRURDJOE9EVRVJQFWHY22NYE93,birds,margaret,3CPLWGV3MPNLQ46XEKY0AOOZ19DN96,hummingbird,,Please label the pictures below.,NA,NA,,NA,,images/swan.jpg,birds,NA,graduated_college,AVK1TZJ6OT9HY,English,,NA,birds,NA,1,1564588365922,2,NA,1.27,These are both,hummingbird,NA,warmup
123,chihuahua,NA,Wed Jul 31 2019 11:52:45 GMT-0400 (Eastern Daylight Time),NA,5,images/great-dane.jpg,chihuahua,This is a ,no,2,335VBRURDJOE9EVRVJQFWHY22NYE93,dogs,margaret,3CPLWGV3MPNLQ46XEKY0AOOZ19DN96,great dane,,Please label the pictures below.,NA,NA,,NA,,images/chihuahua.jpg,dogs,NA,graduated_college,AVK1TZJ6OT9HY,English,,NA,dogs,NA,2,1564588365922,1,NA,1.27,These are both,hound,NA,warmup
123,chihuahua,NA,Wed Jul 31 2019 11:52:45 GMT-0400 (Eastern Daylight Time),NA,5,images/great-dane.jpg,chihuahua,This is a ,no,2,335VBRURDJOE9EVRVJQFWHY22NYE93,dogs,margaret,3CPLWGV3MPNLQ46XEKY0AOOZ19DN96,great dane,,Please label the pictures below.,NA,NA,,NA,,images/chihuahua.jpg,dogs,NA,graduated_college,AVK1TZJ6OT9HY,English,,NA,dogs,NA,2,1564588365922,2,NA,1.27,These are both,great dane,NA,warmup
123,pike,NA,Wed Jul 31 2019 11:52:45 GMT-0400 (Eastern Daylight Time),NA,5,images/goldfish.png,swordfish,This is a ,no,2,335VBRURDJOE9EVRVJQFWHY22NYE93,fish,margaret,3CPLWGV3MPNLQ46XEKY0AOOZ19DN96,goldfish,,Please label the pictures below.,NA,NA,,NA,,images/swordfish.jpg,fish,NA,graduated_college,AVK1TZJ6OT9HY,English,,NA,fish,NA,3,1564588365922,1,NA,1.27,These are both,fish,NA,warmup
123,swordfish,NA,Wed Jul 31 2019 11:52:45 GMT-0400 (Eastern Daylight Time),NA,5,images/goldfish.png,swordfish,This is a ,no,2,335VBRURDJOE9EVRVJQFWHY22NYE93,fish,margaret,3CPLWGV3MPNLQ46XEKY0AOOZ19DN96,goldfish,,Please label the pictures below.,NA,NA,,NA,,images/swordfish.jpg,fish,NA,graduated_college,AVK1TZJ6OT9HY,English,,NA,fish,NA,3,1564588365922,2,NA,1.27,These are both,goldfish,NA,warmup
123,NA,big,Wed Jul 31 2019 11:52:45 GMT-0400 (Eastern Daylight Time),images/dog_parade_small.png,5,NA,NA,That ,no,2,335VBRURDJOE9EVRVJQFWHY22NYE93,dogs,margaret,3CPLWGV3MPNLQ46XEKY0AOOZ19DN96,NA,,Another animal belongs to the group.,predicative,You say to your friend:,,chihuahua,,NA,NA,small,graduated_college,AVK1TZJ6OT9HY,English,,,NA,You see a group of animals.,1,1564588365922,NA,images/chihuahua-b.jpg,1.27, is big.,NA,incongruent,main
123,NA,big,Wed Jul 31 2019 11:52:45 GMT-0400 (Eastern Daylight Time),images/bird-parade.png,5,NA,NA,That ,no,2,335VBRURDJOE9EVRVJQFWHY22NYE93,birds,margaret,3CPLWGV3MPNLQ46XEKY0AOOZ19DN96,NA,,Another animal belongs to the group.,predicative,You say to your friend:,,swan,,NA,NA,big,graduated_college,AVK1TZJ6OT9HY,English,,,NA,You see a group of animals.,2,1564588365922,NA,images/swan.jpg,1.27, is big.,NA,congruent,main
123,NA,small,Wed Jul 31 2019 11:52:45 GMT-0400 (Eastern Daylight Time),images/fish-parade.png,5,NA,NA,That ,no,2,335VBRURDJOE9EVRVJQFWHY22NYE93,fish,margaret,3CPLWGV3MPNLQ46XEKY0AOOZ19DN96,NA,,Another animal belongs to the group.,predicative,You say to your friend:,,goldfish,,NA,NA,small,graduated_college,AVK1TZJ6OT9HY,English,,,NA,You see a group of animals.,3,1564588365922,NA,images/goldfish.png,1.27, is small.,NA,congruent,main
128,swan,NA,Wed Jul 31 2019 11:01:42 GMT-0500 (Central Daylight Time),NA,5,images/colibri.jpg,swan,This is a ,No,1,34YWR3PJ28Y5JKYVQSXERVIGFPEX0I,birds,barbara,3EFE17QCRDTBLNGLKS3EMZWT7LSHS1,hummingbird,confused,Please label the pictures below.,NA,NA,48,NA,,images/swan.jpg,birds,NA,graduated_college,A1160COTUR26JZ,English,female,NA,birds,NA,1,1564588902089,1,NA,1.10,These are both,hummingbird,NA,warmup
128,tuna,NA,Wed Jul 31 2019 11:01:42 GMT-0500 (Central Daylight Time),NA,5,images/goldfish.png,swordfish,This is a ,No,1,34YWR3PJ28Y5JKYVQSXERVIGFPEX0I,fish,barbara,3EFE17QCRDTBLNGLKS3EMZWT7LSHS1,goldfish,confused,Please label the pictures below.,NA,NA,48,NA,,images/swordfish.jpg,fish,NA,graduated_college,A1160COTUR26JZ,English,female,NA,fish,NA,2,1564588902089,1,NA,1.10,These are both,goldfish,NA,warmup
128,swordfish,NA,Wed Jul 31 2019 11:01:42 GMT-0500 (Central Daylight Time),NA,5,images/goldfish.png,swordfish,This is a ,No,1,34YWR3PJ28Y5JKYVQSXERVIGFPEX0I,fish,barbara,3EFE17QCRDTBLNGLKS3EMZWT7LSHS1,goldfish,confused,Please label the pictures below.,NA,NA,48,NA,,images/swordfish.jpg,fish,NA,graduated_college,A1160COTUR26JZ,English,female,NA,fish,NA,2,1564588902089,2,NA,1.10,These are both,goldfish,NA,warmup
128,chihuahua,NA,Wed Jul 31 2019 11:01:42 GMT-0500 (Central Daylight Time),NA,5,images/great-dane.jpg,chihuahua,This is a ,No,1,34YWR3PJ28Y5JKYVQSXERVIGFPEX0I,dogs,barbara,3EFE17QCRDTBLNGLKS3EMZWT7LSHS1,great dane,confused,Please label the pictures below.,NA,NA,48,NA,,images/chihuahua.jpg,dogs,NA,graduated_college,A1160COTUR26JZ,English,female,NA,dogs,NA,3,1564588902089,1,NA,1.10,These are both,great dane,NA,warmup
128,NA,big,Wed Jul 31 2019 11:01:42 GMT-0500 (Central Daylight Time),images/dog_parade_small.png,5,NA,NA,That ,No,1,34YWR3PJ28Y5JKYVQSXERVIGFPEX0I,dogs,barbara,3EFE17QCRDTBLNGLKS3EMZWT7LSHS1,NA,confused,Another animal belongs to the group.,predicative,You say to your friend:,48,dog,,NA,NA,small,graduated_college,A1160COTUR26JZ,English,female,,NA,You see a group of animals.,1,1564588902089,NA,images/chihuahua-b.jpg,1.10, is big.,NA,incongruent,main
128,NA,small,Wed Jul 31 2019 11:01:42 GMT-0500 (Central Daylight Time),images/bird-parade.png,5,NA,NA,That ,No,1,34YWR3PJ28Y5JKYVQSXERVIGFPEX0I,birds,barbara,3EFE17QCRDTBLNGLKS3EMZWT7LSHS1,NA,confused,Another animal belongs to the group.,predicative,You say to your friend:,48,swan,,NA,NA,big,graduated_college,A1160COTUR26JZ,English,female,,NA,You see a group of animals.,2,1564588902089,NA,images/swan-s.jpg,1.10, is small.,NA,incongruent,main
128,NA,big,Wed Jul 31 2019 11:01:42 GMT-0500 (Central Daylight Time),images/fish-parade.png,5,NA,NA,That ,No,1,34YWR3PJ28Y5JKYVQSXERVIGFPEX0I,fish,barbara,3EFE17QCRDTBLNGLKS3EMZWT7LSHS1,NA,confused,Another animal belongs to the group.,predicative,You say to your friend:,48,swordfish,,NA,NA,big,graduated_college,A1160COTUR26JZ,English,female,,NA,You see a group of animals.,3,1564588902089,NA,images/swordfish.jpg,1.10, is big.,NA,congruent,main
128,pine tree,NA,Wed Jul 31 2019 11:01:42 GMT-0500 (Central Daylight Time),NA,5,images/bonsai.jpg,redwood|sequoia,This is a ,No,1,34YWR3PJ28Y5JKYVQSXERVIGFPEX0I,trees,barbara,3EFE17QCRDTBLNGLKS3EMZWT7LSHS1,bonsai,confused,Please label the pictures below.,NA,NA,48,NA,,images/sequoia.jpg,trees,NA,graduated_college,A1160COTUR26JZ,English,female,NA,trees,NA,1,1564588902089,1,NA,1.10,These are both,bonsai,NA,warmup
128,redwood,NA,Wed Jul 31 2019 11:01:42 GMT-0500 (Central Daylight Time),NA,5,images/bonsai.jpg,redwood|sequoia,This is a ,No,1,34YWR3PJ28Y5JKYVQSXERVIGFPEX0I,trees,barbara,3EFE17QCRDTBLNGLKS3EMZWT7LSHS1,bonsai,confused,Please label the pictures below.,NA,NA,48,NA,,images/sequoia.jpg,trees,NA,graduated_college,A1160COTUR26JZ,English,female,NA,trees,NA,1,1564588902089,2,NA,1.10,These are both,bonsai,NA,warmup
128,dandelion,NA,Wed Jul 31 2019 11:01:42 GMT-0500 (Central Daylight Time),NA,5,images/sunflower.png,daisy,This is a ,No,1,34YWR3PJ28Y5JKYVQSXERVIGFPEX0I,flowers,barbara,3EFE17QCRDTBLNGLKS3EMZWT7LSHS1,sunflower,confused,Please label the pictures below.,NA,NA,48,NA,,images/daisy.png,flowers,NA,graduated_college,A1160COTUR26JZ,English,female,NA,flowers,NA,2,1564588902089,1,NA,1.10,These are both,sunflower,NA,warmup
128,daisy,NA,Wed Jul 31 2019 11:01:42 GMT-0500 (Central Daylight Time),NA,5,images/sunflower.png,daisy,This is a ,No,1,34YWR3PJ28Y5JKYVQSXERVIGFPEX0I,flowers,barbara,3EFE17QCRDTBLNGLKS3EMZWT7LSHS1,sunflower,confused,Please label the pictures below.,NA,NA,48,NA,,images/daisy.png,flowers,NA,graduated_college,A1160COTUR26JZ,English,female,NA,flowers,NA,2,1564588902089,2,NA,1.10,These are both,sunflower,NA,warmup
128,monkey,NA,Wed Jul 31 2019 11:01:42 GMT-0500 (Central Daylight Time),NA,5,images/gorilla.jpg,spider monkey,This is a ,No,1,34YWR3PJ28Y5JKYVQSXERVIGFPEX0I,primates,barbara,3EFE17QCRDTBLNGLKS3EMZWT7LSHS1,gorilla,confused,Please label the pictures below.,NA,NA,48,NA,,images/spidermonkey.jpg,mammals,NA,graduated_college,A1160COTUR26JZ,English,female,NA,monkeys|apes|primates,NA,3,1564588902089,1,NA,1.10,These are both,ape,NA,warmup
128,spider monkey,NA,Wed Jul 31 2019 11:01:42 GMT-0500 (Central Daylight Time),NA,5,images/gorilla.jpg,spider monkey,This is a ,No,1,34YWR3PJ28Y5JKYVQSXERVIGFPEX0I,primates,barbara,3EFE17QCRDTBLNGLKS3EMZWT7LSHS1,gorilla,confused,Please label the pictures below.,NA,NA,48,NA,,images/spidermonkey.jpg,primates,NA,graduated_college,A1160COTUR26JZ,English,female,NA,monkeys|apes|primates,NA,3,1564588902089,2,NA,1.10,These are both,ape,NA,warmup
128,spider monkey,NA,Wed Jul 31 2019 11:01:42 GMT-0500 (Central Daylight Time),NA,5,images/gorilla.jpg,spider monkey,This is a ,No,1,34YWR3PJ28Y5JKYVQSXERVIGFPEX0I,primates,barbara,3EFE17QCRDTBLNGLKS3EMZWT7LSHS1,gorilla,confused,Please label the pictures below.,NA,NA,48,NA,,images/spidermonkey.jpg,primates,NA,graduated_college,A1160COTUR26JZ,English,female,NA,monkeys|apes|primates,NA,3,1564588902089,3,NA,1.10,These are both,ape,NA,warmup
128,spider monkey,NA,Wed Jul 31 2019 11:01:42 GMT-0500 (Central Daylight Time),NA,5,images/gorilla.jpg,spider monkey,This is a ,No,1,34YWR3PJ28Y5JKYVQSXERVIGFPEX0I,primates,barbara,3EFE17QCRDTBLNGLKS3EMZWT7LSHS1,gorilla,confused,Please label the pictures below.,NA,NA,48,NA,,images/spidermonkey.jpg,primates,NA,graduated_college,A1160COTUR26JZ,English,female,NA,monkeys|apes|primates,NA,3,1564588902089,4,NA,1.10,These are both,ape,NA,warmup
128,spider monkey,NA,Wed Jul 31 2019 11:01:42 GMT-0500 (Central Daylight Time),NA,5,images/gorilla.jpg,spider monkey,This is a ,No,1,34YWR3PJ28Y5JKYVQSXERVIGFPEX0I,primates,barbara,3EFE17QCRDTBLNGLKS3EMZWT7LSHS1,gorilla,confused,Please label the pictures below.,NA,NA,48,NA,,images/spidermonkey.jpg,primates,NA,graduated_college,A1160COTUR26JZ,English,female,NA,monkeys|apes|primates,NA,3,1564588902089,5,NA,1.10,These are both,ape,NA,warmup
128,spider monkey,NA,Wed Jul 31 2019 11:01:42 GMT-0500 (Central Daylight Time),NA,5,images/gorilla.jpg,spider monkey,This is a ,No,1,34YWR3PJ28Y5JKYVQSXERVIGFPEX0I,primates,barbara,3EFE17QCRDTBLNGLKS3EMZWT7LSHS1,gorilla,confused,Please label the pictures below.,NA,NA,48,NA,,images/spidermonkey.jpg,primates,NA,graduated_college,A1160COTUR26JZ,English,female,NA,monkeys|apes|primates,NA,3,1564588902089,6,NA,1.10,These are both,gorilla,NA,warmup
128,NA,small,Wed Jul 31 2019 11:01:42 GMT-0500 (Central Daylight Time),images/flower-parade-small.png,5,NA,NA,That ,No,1,34YWR3PJ28Y5JKYVQSXERVIGFPEX0I,flowers,barbara,3EFE17QCRDTBLNGLKS3EMZWT7LSHS1,NA,confused,Another plant belongs to the group.,predicative,You say to your friend:,48,daisy,,NA,NA,small,graduated_college,A1160COTUR26JZ,English,female,,NA,You see a group of plants.,1,1564588902089,NA,images/daisy.png,1.10, is small.,NA,congruent,main
128,NA,big,Wed Jul 31 2019 11:01:42 GMT-0500 (Central Daylight Time),images/monkey-parade-small.png,5,NA,NA,That ,No,1,34YWR3PJ28Y5JKYVQSXERVIGFPEX0I,primates,barbara,3EFE17QCRDTBLNGLKS3EMZWT7LSHS1,NA,confused,Another animal belongs to the group.,predicative,You say to your friend:,48,primate,,NA,NA,small,graduated_college,A1160COTUR26JZ,English,female,,NA,You see a group of animals.,2,1564588902089,NA,images/spidermonkey-b.jpg,1.10, is big.,NA,incongruent,main
128,NA,big,Wed Jul 31 2019 11:01:42 GMT-0500 (Central Daylight Time),images/tree-parade.png,5,NA,NA,That ,No,1,34YWR3PJ28Y5JKYVQSXERVIGFPEX0I,trees,barbara,3EFE17QCRDTBLNGLKS3EMZWT7LSHS1,NA,confused,Another plant belongs to the group.,predicative,You say to your friend:,48,tree,,NA,NA,big,graduated_college,A1160COTUR26JZ,English,female,,NA,You see a group of plants.,3,1564588902089,NA,images/sequoia.jpg,1.10, is big.,NA,congruent,main
131,swan,NA,Wed Jul 31 2019 09:03:47 GMT-0700 (Pacific Daylight Time),NA,5,images/colibri.jpg,swan,This is a ,,1,3FULMHZ7OULBOWHSVMI7SHSVPXB4MM,birds,elizabeth,3634BBTX0PI2DDMJKQL0FCETI8EFIA,hummingbird,yes,Please label the pictures below.,NA,NA,22,NA,,images/swan.jpg,birds,NA,graduated_college,A1PUHCEBSOWETV,English,male,NA,birds,NA,1,1564589027203,1,NA,1.10,These are both,hummingbird,NA,warmup
131,swordfish,NA,Wed Jul 31 2019 09:03:47 GMT-0700 (Pacific Daylight Time),NA,5,images/goldfish.png,swordfish,This is a ,,1,3FULMHZ7OULBOWHSVMI7SHSVPXB4MM,fish,elizabeth,3634BBTX0PI2DDMJKQL0FCETI8EFIA,goldfish,yes,Please label the pictures below.,NA,NA,22,NA,,images/swordfish.jpg,fish,NA,graduated_college,A1PUHCEBSOWETV,English,male,NA,fish,NA,2,1564589027203,1,NA,1.10,These are both,goldfish,NA,warmup
131,oak,NA,Wed Jul 31 2019 09:03:47 GMT-0700 (Pacific Daylight Time),NA,5,images/bonsai.jpg,redwood|sequoia,This is a ,,1,3FULMHZ7OULBOWHSVMI7SHSVPXB4MM,trees,elizabeth,3634BBTX0PI2DDMJKQL0FCETI8EFIA,bonsai,yes,Please label the pictures below.,NA,NA,22,NA,,images/sequoia.jpg,tree,NA,graduated_college,A1PUHCEBSOWETV,English,male,NA,trees,NA,3,1564589027203,1,NA,1.10,These are both,bonsai,NA,warmup
131,redwood,NA,Wed Jul 31 2019 09:03:47 GMT-0700 (Pacific Daylight Time),NA,5,images/bonsai.jpg,redwood|sequoia,This is a ,,1,3FULMHZ7OULBOWHSVMI7SHSVPXB4MM,trees,elizabeth,3634BBTX0PI2DDMJKQL0FCETI8EFIA,bonsai,yes,Please label the pictures below.,NA,NA,22,NA,,images/sequoia.jpg,trees,NA,graduated_college,A1PUHCEBSOWETV,English,male,NA,trees,NA,3,1564589027203,2,NA,1.10,These are both,bonsai,NA,warmup
131,NA,big,Wed Jul 31 2019 09:03:47 GMT-0700 (Pacific Daylight Time),images/fish-parade.png,5,NA,NA,That ,,1,3FULMHZ7OULBOWHSVMI7SHSVPXB4MM,fish,elizabeth,3634BBTX0PI2DDMJKQL0FCETI8EFIA,NA,yes,Another animal belongs to the group.,predicative,You say to your friend:,22,fish,,NA,NA,small,graduated_college,A1PUHCEBSOWETV,English,male,,NA,You see a group of animals.,1,1564589027203,NA,images/goldfish-b.png,1.10, is big.,NA,incongruent,main
131,NA,small,Wed Jul 31 2019 09:03:47 GMT-0700 (Pacific Daylight Time),images/bird-parade-small.png,5,NA,NA,That ,,1,3FULMHZ7OULBOWHSVMI7SHSVPXB4MM,birds,elizabeth,3634BBTX0PI2DDMJKQL0FCETI8EFIA,NA,yes,Another animal bleongs to the group.,predicative,You say to your friend:,22,bird,,NA,NA,small,graduated_college,A1PUHCEBSOWETV,English,male,,NA,You see a group of animals.,2,1564589027203,NA,images/colibri.jpg,1.10, is small.,NA,congruent,main
131,NA,big,Wed Jul 31 2019 09:03:47 GMT-0700 (Pacific Daylight Time),images/tree-parade.png,5,NA,NA,That ,,1,3FULMHZ7OULBOWHSVMI7SHSVPXB4MM,trees,elizabeth,3634BBTX0PI2DDMJKQL0FCETI8EFIA,NA,yes,Another plant belongs to the group.,predicative,You say to your friend:,22,tree,,NA,NA,small,graduated_college,A1PUHCEBSOWETV,English,male,,NA,You see a group of plants.,3,1564589027203,NA,images/bonsai-b.png,1.10, is big.,NA,incongruent,main
131,monkey,NA,Wed Jul 31 2019 09:03:47 GMT-0700 (Pacific Daylight Time),NA,5,images/gorilla.jpg,spider monkey,This is a ,,1,3FULMHZ7OULBOWHSVMI7SHSVPXB4MM,primates,elizabeth,3634BBTX0PI2DDMJKQL0FCETI8EFIA,gorilla,yes,Please label the pictures below.,NA,NA,22,NA,,images/spidermonkey.jpg,apes,NA,graduated_college,A1PUHCEBSOWETV,English,male,NA,monkeys|apes|primates,NA,1,1564589027203,1,NA,1.10,These are both,gorilla,NA,warmup
131,spider monkey,NA,Wed Jul 31 2019 09:03:47 GMT-0700 (Pacific Daylight Time),NA,5,images/gorilla.jpg,spider monkey,This is a ,,1,3FULMHZ7OULBOWHSVMI7SHSVPXB4MM,primates,elizabeth,3634BBTX0PI2DDMJKQL0FCETI8EFIA,gorilla,yes,Please label the pictures below.,NA,NA,22,NA,,images/spidermonkey.jpg,apes,NA,graduated_college,A1PUHCEBSOWETV,English,male,NA,monkeys|apes|primates,NA,1,1564589027203,2,NA,1.10,These are both,gorilla,NA,warmup
131,dandelion,NA,Wed Jul 31 2019 09:03:47 GMT-0700 (Pacific Daylight Time),NA,5,images/sunflower.png,daisy,This is a ,,1,3FULMHZ7OULBOWHSVMI7SHSVPXB4MM,flowers,elizabeth,3634BBTX0PI2DDMJKQL0FCETI8EFIA,sunflower,yes,Please label the pictures below.,NA,NA,22,NA,,images/daisy.png,flowers,NA,graduated_college,A1PUHCEBSOWETV,English,male,NA,flowers,NA,2,1564589027203,1,NA,1.10,These are both,sunflower,NA,warmup
131,daisy,NA,Wed Jul 31 2019 09:03:47 GMT-0700 (Pacific Daylight Time),NA,5,images/sunflower.png,daisy,This is a ,,1,3FULMHZ7OULBOWHSVMI7SHSVPXB4MM,flowers,elizabeth,3634BBTX0PI2DDMJKQL0FCETI8EFIA,sunflower,yes,Please label the pictures below.,NA,NA,22,NA,,images/daisy.png,flowers,NA,graduated_college,A1PUHCEBSOWETV,English,male,NA,flowers,NA,2,1564589027203,2,NA,1.10,These are both,sunflower,NA,warmup
131,dog,NA,Wed Jul 31 2019 09:03:47 GMT-0700 (Pacific Daylight Time),NA,5,images/great-dane.jpg,chihuahua,This is a ,,1,3FULMHZ7OULBOWHSVMI7SHSVPXB4MM,dogs,elizabeth,3634BBTX0PI2DDMJKQL0FCETI8EFIA,great dane,yes,Please label the pictures below.,NA,NA,22,NA,,images/chihuahua.jpg,dogs,NA,graduated_college,A1PUHCEBSOWETV,English,male,NA,dogs,NA,3,1564589027203,1,NA,1.10,These are both,dog,NA,warmup
131,chihuahua,NA,Wed Jul 31 2019 09:03:47 GMT-0700 (Pacific Daylight Time),NA,5,images/great-dane.jpg,chihuahua,This is a ,,1,3FULMHZ7OULBOWHSVMI7SHSVPXB4MM,dogs,elizabeth,3634BBTX0PI2DDMJKQL0FCETI8EFIA,great dane,yes,Please label the pictures below.,NA,NA,22,NA,,images/chihuahua.jpg,dogs,NA,graduated_college,A1PUHCEBSOWETV,English,male,NA,dogs,NA,3,1564589027203,2,NA,1.10,These are both,great dane,NA,warmup
131,NA,big,Wed Jul 31 2019 09:03:47 GMT-0700 (Pacific Daylight Time),images/flower-parade.png,5,NA,NA,That ,,1,3FULMHZ7OULBOWHSVMI7SHSVPXB4MM,flowers,elizabeth,3634BBTX0PI2DDMJKQL0FCETI8EFIA,NA,yes,Another plant belongs to the group.,predicative,You say to your friend:,22,flower,,NA,NA,big,graduated_college,A1PUHCEBSOWETV,English,male,,NA,You see a group of plants.,1,1564589027203,NA,images/sunflower.png,1.10, is big.,NA,congruent,main
131,NA,small,Wed Jul 31 2019 09:03:47 GMT-0700 (Pacific Daylight Time),images/dog_parade.png,5,NA,NA,That ,,1,3FULMHZ7OULBOWHSVMI7SHSVPXB4MM,dogs,elizabeth,3634BBTX0PI2DDMJKQL0FCETI8EFIA,NA,yes,Another animal belongs to the group.,predicative,You say to your friend:,22,dog,,NA,NA,big,graduated_college,A1PUHCEBSOWETV,English,male,,NA,You see a group of animals.,2,1564589027203,NA,images/great-dane-s.jpg,1.10, is small.,NA,incongruent,main
131,NA,big,Wed Jul 31 2019 09:03:47 GMT-0700 (Pacific Daylight Time),images/monkey-parade.png,5,NA,NA,That ,,1,3FULMHZ7OULBOWHSVMI7SHSVPXB4MM,primates,elizabeth,3634BBTX0PI2DDMJKQL0FCETI8EFIA,NA,yes,Another animal belongs to the group.,predicative,You say to your friend:,22,ape,,NA,NA,big,graduated_college,A1PUHCEBSOWETV,English,male,,NA,You see a group of animals.,3,1564589027203,NA,images/gorilla.jpg,1.10, is big.,NA,congruent,main
132,small dog,NA,Wed Jul 31 2019 11:54:39 GMT-0400 (Eastern Daylight Time),NA,5,images/great-dane.jpg,chihuahua,This is a ,no,1,3FVBZG9CLJ28XUYGLOFSO9UMRZWH0A,dogs,patricia,3Z9WI9EOZ0CDX43DFJUCVD5JQRGKHO,great dane,yes,Please label the pictures below.,NA,NA,34,NA,,images/chihuahua.jpg,dogs,NA,graduated_college,A3BLJ6QSDTZC9U,English,female,NA,dogs,NA,1,1564588479038,1,NA,1.25,These are both,large dog,NA,warmup
132,chihuahua,NA,Wed Jul 31 2019 11:54:39 GMT-0400 (Eastern Daylight Time),NA,5,images/great-dane.jpg,chihuahua,This is a ,no,1,3FVBZG9CLJ28XUYGLOFSO9UMRZWH0A,dogs,patricia,3Z9WI9EOZ0CDX43DFJUCVD5JQRGKHO,great dane,yes,Please label the pictures below.,NA,NA,34,NA,,images/chihuahua.jpg,dogs,NA,graduated_college,A3BLJ6QSDTZC9U,English,female,NA,dogs,NA,1,1564588479038,2,NA,1.25,These are both,great dane,NA,warmup
132,monkey,NA,Wed Jul 31 2019 11:54:39 GMT-0400 (Eastern Daylight Time),NA,5,images/gorilla.jpg,spider monkey,This is a ,no,1,3FVBZG9CLJ28XUYGLOFSO9UMRZWH0A,primates,patricia,3Z9WI9EOZ0CDX43DFJUCVD5JQRGKHO,gorilla,yes,Please label the pictures below.,NA,NA,34,NA,,images/spidermonkey.jpg,apes,NA,graduated_college,A3BLJ6QSDTZC9U,English,female,NA,monkeys|apes|primates,NA,2,1564588479038,1,NA,1.25,These are both,gorilla,NA,warmup
132,spider monkey,NA,Wed Jul 31 2019 11:54:39 GMT-0400 (Eastern Daylight Time),NA,5,images/gorilla.jpg,spider monkey,This is a ,no,1,3FVBZG9CLJ28XUYGLOFSO9UMRZWH0A,primates,patricia,3Z9WI9EOZ0CDX43DFJUCVD5JQRGKHO,gorilla,yes,Please label the pictures below.,NA,NA,34,NA,,images/spidermonkey.jpg,apes,NA,graduated_college,A3BLJ6QSDTZC9U,English,female,NA,monkeys|apes|primates,NA,2,1564588479038,2,NA,1.25,These are both,gorilla,NA,warmup
132,daisy,NA,Wed Jul 31 2019 11:54:39 GMT-0400 (Eastern Daylight Time),NA,5,images/sunflower.png,daisy,This is a ,no,1,3FVBZG9CLJ28XUYGLOFSO9UMRZWH0A,flowers,patricia,3Z9WI9EOZ0CDX43DFJUCVD5JQRGKHO,sunflower,yes,Please label the pictures below.,NA,NA,34,NA,,images/daisy.png,flowers,NA,graduated_college,A3BLJ6QSDTZC9U,English,female,NA,flowers,NA,3,1564588479038,1,NA,1.25,These are both,sunflower,NA,warmup
132,NA,big,Wed Jul 31 2019 11:54:39 GMT-0400 (Eastern Daylight Time),images/flower-parade-small.png,5,NA,NA,That's a big ,no,1,3FVBZG9CLJ28XUYGLOFSO9UMRZWH0A,flowers,patricia,3Z9WI9EOZ0CDX43DFJUCVD5JQRGKHO,NA,yes,Another plant belongs to the group.,prenominal,You say to your friend:,34,daisy,,NA,NA,small,graduated_college,A3BLJ6QSDTZC9U,English,female,,NA,You see a group of plants.,1,1564588479038,NA,images/daisy-b.png,1.25,,NA,incongruent,main
132,NA,big,Wed Jul 31 2019 11:54:39 GMT-0400 (Eastern Daylight Time),images/monkey-parade.png,5,NA,NA,That's a big ,no,1,3FVBZG9CLJ28XUYGLOFSO9UMRZWH0A,primates,patricia,3Z9WI9EOZ0CDX43DFJUCVD5JQRGKHO,NA,yes,Another animal belongs to the group.,prenominal,You say to your friend:,34,gorilla,,NA,NA,big,graduated_college,A3BLJ6QSDTZC9U,English,female,,NA,You see a group of animals.,2,1564588479038,NA,images/gorilla.jpg,1.25,,NA,congruent,main
132,NA,big,Wed Jul 31 2019 11:54:39 GMT-0400 (Eastern Daylight Time),images/dog_parade.png,5,NA,NA,That's a big ,no,1,3FVBZG9CLJ28XUYGLOFSO9UMRZWH0A,dogs,patricia,3Z9WI9EOZ0CDX43DFJUCVD5JQRGKHO,NA,yes,Another animal belongs to the group.,prenominal,You say to your friend:,34,great dane,,NA,NA,big,graduated_college,A3BLJ6QSDTZC9U,English,female,,NA,You see a group of animals.,3,1564588479038,NA,images/great-dane.jpg,1.25,,NA,congruent,main
132,swan,NA,Wed Jul 31 2019 11:54:39 GMT-0400 (Eastern Daylight Time),NA,5,images/colibri.jpg,swan,This is a ,no,1,3FVBZG9CLJ28XUYGLOFSO9UMRZWH0A,birds,patricia,3Z9WI9EOZ0CDX43DFJUCVD5JQRGKHO,hummingbird,yes,Please label the pictures below.,NA,NA,34,NA,,images/swan.jpg,birds,NA,graduated_college,A3BLJ6QSDTZC9U,English,female,NA,birds,NA,1,1564588479038,1,NA,1.25,These are both,hummingbird,NA,warmup
132,red wood tree,NA,Wed Jul 31 2019 11:54:39 GMT-0400 (Eastern Daylight Time),NA,5,images/bonsai.jpg,redwood|sequoia,This is a ,no,1,3FVBZG9CLJ28XUYGLOFSO9UMRZWH0A,trees,patricia,3Z9WI9EOZ0CDX43DFJUCVD5JQRGKHO,bonsai,yes,Please label the pictures below.,NA,NA,34,NA,,images/sequoia.jpg,trees,NA,graduated_college,A3BLJ6QSDTZC9U,English,female,NA,trees,NA,2,1564588479038,1,NA,1.25,These are both,bonzi tree,NA,warmup
132,redwood,NA,Wed Jul 31 2019 11:54:39 GMT-0400 (Eastern Daylight Time),NA,5,images/bonsai.jpg,redwood|sequoia,This is a ,no,1,3FVBZG9CLJ28XUYGLOFSO9UMRZWH0A,trees,patricia,3Z9WI9EOZ0CDX43DFJUCVD5JQRGKHO,bonsai,yes,Please label the pictures below.,NA,NA,34,NA,,images/sequoia.jpg,trees,NA,graduated_college,A3BLJ6QSDTZC9U,English,female,NA,trees,NA,2,1564588479038,2,NA,1.25,These are both,bonsai,NA,warmup
132,merlin,NA,Wed Jul 31 2019 11:54:39 GMT-0400 (Eastern Daylight Time),NA,5,images/goldfish.png,swordfish,This is a ,no,1,3FVBZG9CLJ28XUYGLOFSO9UMRZWH0A,fish,patricia,3Z9WI9EOZ0CDX43DFJUCVD5JQRGKHO,goldfish,yes,Please label the pictures below.,NA,NA,34,NA,,images/swordfish.jpg,fish,NA,graduated_college,A3BLJ6QSDTZC9U,English,female,NA,fish,NA,3,1564588479038,1,NA,1.25,These are both,goldfish,NA,warmup
132,swordfish,NA,Wed Jul 31 2019 11:54:39 GMT-0400 (Eastern Daylight Time),NA,5,images/goldfish.png,swordfish,This is a ,no,1,3FVBZG9CLJ28XUYGLOFSO9UMRZWH0A,fish,patricia,3Z9WI9EOZ0CDX43DFJUCVD5JQRGKHO,goldfish,yes,Please label the pictures below.,NA,NA,34,NA,,images/swordfish.jpg,fish,NA,graduated_college,A3BLJ6QSDTZC9U,English,female,NA,fish,NA,3,1564588479038,2,NA,1.25,These are both,goldfish,NA,warmup
132,NA,big,Wed Jul 31 2019 11:54:39 GMT-0400 (Eastern Daylight Time),images/tree-parade.png,5,NA,NA,That's a big ,no,1,3FVBZG9CLJ28XUYGLOFSO9UMRZWH0A,trees,patricia,3Z9WI9EOZ0CDX43DFJUCVD5JQRGKHO,NA,yes,Another plant belongs to the group.,prenominal,You say to your friend:,34,bonsai,,NA,NA,small,graduated_college,A3BLJ6QSDTZC9U,English,female,,NA,You see a group of plants.,1,1564588479038,NA,images/bonsai-b.png,1.25,,NA,incongruent,main
132,NA,small,Wed Jul 31 2019 11:54:39 GMT-0400 (Eastern Daylight Time),images/bird-parade-small.png,5,NA,NA,That's a small ,no,1,3FVBZG9CLJ28XUYGLOFSO9UMRZWH0A,birds,patricia,3Z9WI9EOZ0CDX43DFJUCVD5JQRGKHO,NA,yes,Another animal bleongs to the group.,prenominal,You say to your friend:,34,bird,,NA,NA,small,graduated_college,A3BLJ6QSDTZC9U,English,female,,NA,You see a group of animals.,2,1564588479038,NA,images/colibri.jpg,1.25,,NA,congruent,main
132,NA,small,Wed Jul 31 2019 11:54:39 GMT-0400 (Eastern Daylight Time),images/fish-parade.png,5,NA,NA,That's a small ,no,1,3FVBZG9CLJ28XUYGLOFSO9UMRZWH0A,fish,patricia,3Z9WI9EOZ0CDX43DFJUCVD5JQRGKHO,NA,yes,Another animal belongs to the group.,prenominal,You say to your friend:,34,swordfish,,NA,NA,big,graduated_college,A3BLJ6QSDTZC9U,English,female,,NA,You see a group of animals.,3,1564588479038,NA,images/swordfish-s.jpg,1.25,,NA,incongruent,main
134,Swan,NA,Wed Jul 31 2019 09:59:03 GMT-0600 (Mountain Daylight Time),NA,5,images/colibri.jpg,swan,This is a ,None.,2,3LB1BGHFL2KVZYLWTQ7QUKRUE65TYW,birds,Barbara,3LRLIPTPERXYNHVZ9DKKERIFDWPAK2,hummingbird,yes,Please label the pictures below.,NA,NA,46,NA,None at this time.,images/swan.jpg,birds,NA,graduated_high_school,A2UMVPFBDCK5GK,English,female,NA,birds,NA,1,1564588743865,1,NA,1.10,These are both,Hummingbird,NA,warmup
134,daisy,NA,Wed Jul 31 2019 09:59:03 GMT-0600 (Mountain Daylight Time),NA,5,images/sunflower.png,daisy,This is a ,None.,2,3LB1BGHFL2KVZYLWTQ7QUKRUE65TYW,flowers,Barbara,3LRLIPTPERXYNHVZ9DKKERIFDWPAK2,sunflower,yes,Please label the pictures below.,NA,NA,46,NA,None at this time.,images/daisy.png,flowers,NA,graduated_high_school,A2UMVPFBDCK5GK,English,female,NA,flowers,NA,2,1564588743865,1,NA,1.10,These are both,dandelion,NA,warmup
134,daisy,NA,Wed Jul 31 2019 09:59:03 GMT-0600 (Mountain Daylight Time),NA,5,images/sunflower.png,daisy,This is a ,None.,2,3LB1BGHFL2KVZYLWTQ7QUKRUE65TYW,flowers,Barbara,3LRLIPTPERXYNHVZ9DKKERIFDWPAK2,sunflower,yes,Please label the pictures below.,NA,NA,46,NA,None at this time.,images/daisy.png,flowers,NA,graduated_high_school,A2UMVPFBDCK5GK,English,female,NA,flowers,NA,2,1564588743865,2,NA,1.10,These are both,sunflower,NA,warmup
134,swordfish,NA,Wed Jul 31 2019 09:59:03 GMT-0600 (Mountain Daylight Time),NA,5,images/goldfish.png,swordfish,This is a ,None.,2,3LB1BGHFL2KVZYLWTQ7QUKRUE65TYW,fish,Barbara,3LRLIPTPERXYNHVZ9DKKERIFDWPAK2,goldfish,yes,Please label the pictures below.,NA,NA,46,NA,None at this time.,images/swordfish.jpg,fish,NA,graduated_high_school,A2UMVPFBDCK5GK,English,female,NA,fish,NA,3,1564588743865,1,NA,1.10,These are both,goldfish,NA,warmup
134,NA,small,Wed Jul 31 2019 09:59:03 GMT-0600 (Mountain Daylight Time),images/bird-parade-small.png,5,NA,NA,That ,None.,2,3LB1BGHFL2KVZYLWTQ7QUKRUE65TYW,birds,Barbara,3LRLIPTPERXYNHVZ9DKKERIFDWPAK2,NA,yes,Another animal bleongs to the group.,predicative,You say to your friend:,46,hummingbird,None at this time.,NA,NA,small,graduated_high_school,A2UMVPFBDCK5GK,English,female,,NA,You see a group of animals.,1,1564588743865,NA,images/colibri.jpg,1.10, is small.,NA,congruent,main
134,NA,small,Wed Jul 31 2019 09:59:03 GMT-0600 (Mountain Daylight Time),images/flower-parade-small.png,5,NA,NA,That ,None.,2,3LB1BGHFL2KVZYLWTQ7QUKRUE65TYW,flowers,Barbara,3LRLIPTPERXYNHVZ9DKKERIFDWPAK2,NA,yes,Another plant belongs to the group.,predicative,You say to your friend:,46,daisy,None at this time.,NA,NA,small,graduated_high_school,A2UMVPFBDCK5GK,English,female,,NA,You see a group of plants.,2,1564588743865,NA,images/daisy.png,1.10, is small.,NA,congruent,main
134,NA,small,Wed Jul 31 2019 09:59:03 GMT-0600 (Mountain Daylight Time),images/fish-parade.png,5,NA,NA,That ,None.,2,3LB1BGHFL2KVZYLWTQ7QUKRUE65TYW,fish,Barbara,3LRLIPTPERXYNHVZ9DKKERIFDWPAK2,NA,yes,Another animal belongs to the group.,predicative,You say to your friend:,46,swordfish,None at this time.,NA,NA,big,graduated_high_school,A2UMVPFBDCK5GK,English,female,,NA,You see a group of animals.,3,1564588743865,NA,images/swordfish-s.jpg,1.10, is small.,NA,incongruent,main
134,chihuahua,NA,Wed Jul 31 2019 09:59:03 GMT-0600 (Mountain Daylight Time),NA,5,images/great-dane.jpg,chihuahua,This is a ,None.,2,3LB1BGHFL2KVZYLWTQ7QUKRUE65TYW,dogs,Barbara,3LRLIPTPERXYNHVZ9DKKERIFDWPAK2,great dane,yes,Please label the pictures below.,NA,NA,46,NA,None at this time.,images/chihuahua.jpg,dogs,NA,graduated_high_school,A2UMVPFBDCK5GK,English,female,NA,dogs,NA,1,1564588743865,1,NA,1.10,These are both,great dane,NA,warmup
134,chimpanzee,NA,Wed Jul 31 2019 09:59:03 GMT-0600 (Mountain Daylight Time),NA,5,images/gorilla.jpg,spider monkey,This is a ,None.,2,3LB1BGHFL2KVZYLWTQ7QUKRUE65TYW,primates,Barbara,3LRLIPTPERXYNHVZ9DKKERIFDWPAK2,gorilla,yes,Please label the pictures below.,NA,NA,46,NA,None at this time.,images/spidermonkey.jpg,primates,NA,graduated_high_school,A2UMVPFBDCK5GK,English,female,NA,monkeys|apes|primates,NA,2,1564588743865,1,NA,1.10,These are both,gorilla,NA,warmup
134,spider monkey,NA,Wed Jul 31 2019 09:59:03 GMT-0600 (Mountain Daylight Time),NA,5,images/gorilla.jpg,spider monkey,This is a ,None.,2,3LB1BGHFL2KVZYLWTQ7QUKRUE65TYW,primates,Barbara,3LRLIPTPERXYNHVZ9DKKERIFDWPAK2,gorilla,yes,Please label the pictures below.,NA,NA,46,NA,None at this time.,images/spidermonkey.jpg,primates,NA,graduated_high_school,A2UMVPFBDCK5GK,English,female,NA,monkeys|apes|primates,NA,2,1564588743865,2,NA,1.10,These are both,gorilla,NA,warmup
134,redwood,NA,Wed Jul 31 2019 09:59:03 GMT-0600 (Mountain Daylight Time),NA,5,images/bonsai.jpg,redwood|sequoia,This is a ,None.,2,3LB1BGHFL2KVZYLWTQ7QUKRUE65TYW,trees,Barbara,3LRLIPTPERXYNHVZ9DKKERIFDWPAK2,bonsai,yes,Please label the pictures below.,NA,NA,46,NA,None at this time.,images/sequoia.jpg,trees,NA,graduated_high_school,A2UMVPFBDCK5GK,English,female,NA,trees,NA,3,1564588743865,1,NA,1.10,These are both,bonsai,NA,warmup
134,NA,big,Wed Jul 31 2019 09:59:03 GMT-0600 (Mountain Daylight Time),images/tree-parade.png,5,NA,NA,That ,None.,2,3LB1BGHFL2KVZYLWTQ7QUKRUE65TYW,trees,Barbara,3LRLIPTPERXYNHVZ9DKKERIFDWPAK2,NA,yes,Another plant belongs to the group.,predicative,You say to your friend:,46,bonsai,None at this time.,NA,NA,small,graduated_high_school,A2UMVPFBDCK5GK,English,female,,NA,You see a group of plants.,1,1564588743865,NA,images/bonsai-b.png,1.10, is big.,NA,incongruent,main
134,NA,small,Wed Jul 31 2019 09:59:03 GMT-0600 (Mountain Daylight Time),images/monkey-parade.png,5,NA,NA,That ,None.,2,3LB1BGHFL2KVZYLWTQ7QUKRUE65TYW,primates,Barbara,3LRLIPTPERXYNHVZ9DKKERIFDWPAK2,NA,yes,Another animal belongs to the group.,predicative,You say to your friend:,46,ape,None at this time.,NA,NA,big,graduated_high_school,A2UMVPFBDCK5GK,English,female,,NA,You see a group of animals.,2,1564588743865,NA,images/gorilla_s.jpg,1.10, is small.,NA,incongruent,main
134,NA,big,Wed Jul 31 2019 09:59:03 GMT-0600 (Mountain Daylight Time),images/dog_parade.png,5,NA,NA,That ,None.,2,3LB1BGHFL2KVZYLWTQ7QUKRUE65TYW,dogs,Barbara,3LRLIPTPERXYNHVZ9DKKERIFDWPAK2,NA,yes,Another animal belongs to the group.,predicative,You say to your friend:,46,great dane,None at this time.,NA,NA,big,graduated_high_school,A2UMVPFBDCK5GK,English,female,,NA,You see a group of animals.,3,1564588743865,NA,images/great-dane.jpg,1.10, is big.,NA,congruent,main
136,dog,NA,Wed Jul 31 2019 09:36:42 GMT-0600 (Central Standard Time),NA,5,images/great-dane.jpg,chihuahua,This is a ,,2,34YWR3PJ28Y5JKYVQSXERVIGFPEX0I,dogs,mary,3MX2NQ3YCAI71BIPD08SWAAVHR3X58,great dane,yes,Please label the pictures below.,NA,NA,25,NA,,images/chihuahua.jpg,dogs,NA,graduated_college,A1PB9RGHUXNVP6,english,male,NA,dogs,NA,1,1564587402984,1,NA,2,These are both,dog,NA,warmup
136,chihuahua,NA,Wed Jul 31 2019 09:36:42 GMT-0600 (Central Standard Time),NA,5,images/great-dane.jpg,chihuahua,This is a ,,2,34YWR3PJ28Y5JKYVQSXERVIGFPEX0I,dogs,mary,3MX2NQ3YCAI71BIPD08SWAAVHR3X58,great dane,yes,Please label the pictures below.,NA,NA,25,NA,,images/chihuahua.jpg,dogs,NA,graduated_college,A1PB9RGHUXNVP6,english,male,NA,dogs,NA,1,1564587402984,2,NA,2,These are both,great dane,NA,warmup
136,goose,NA,Wed Jul 31 2019 09:36:42 GMT-0600 (Central Standard Time),NA,5,images/colibri.jpg,swan,This is a ,,2,34YWR3PJ28Y5JKYVQSXERVIGFPEX0I,birds,mary,3MX2NQ3YCAI71BIPD08SWAAVHR3X58,hummingbird,yes,Please label the pictures below.,NA,NA,25,NA,,images/swan.jpg,birds,NA,graduated_college,A1PB9RGHUXNVP6,english,male,NA,birds,NA,2,1564587402984,1,NA,2,These are both,rrrr,NA,warmup
136,swan,NA,Wed Jul 31 2019 09:36:42 GMT-0600 (Central Standard Time),NA,5,images/colibri.jpg,swan,This is a ,,2,34YWR3PJ28Y5JKYVQSXERVIGFPEX0I,birds,mary,3MX2NQ3YCAI71BIPD08SWAAVHR3X58,hummingbird,yes,Please label the pictures below.,NA,NA,25,NA,,images/swan.jpg,birds,NA,graduated_college,A1PB9RGHUXNVP6,english,male,NA,birds,NA,2,1564587402984,2,NA,2,These are both,hummingbird,NA,warmup
136,er3r3,NA,Wed Jul 31 2019 09:36:42 GMT-0600 (Central Standard Time),NA,5,images/sunflower.png,daisy,This is a ,,2,34YWR3PJ28Y5JKYVQSXERVIGFPEX0I,flowers,mary,3MX2NQ3YCAI71BIPD08SWAAVHR3X58,sunflower,yes,Please label the pictures below.,NA,NA,25,NA,,images/daisy.png,333,NA,graduated_college,A1PB9RGHUXNVP6,english,male,NA,flowers,NA,3,1564587402984,1,NA,2,These are both,3rrr,NA,warmup
136,daisy,NA,Wed Jul 31 2019 09:36:42 GMT-0600 (Central Standard Time),NA,5,images/sunflower.png,daisy,This is a ,,2,34YWR3PJ28Y5JKYVQSXERVIGFPEX0I,flowers,mary,3MX2NQ3YCAI71BIPD08SWAAVHR3X58,sunflower,yes,Please label the pictures below.,NA,NA,25,NA,,images/daisy.png,flowers,NA,graduated_college,A1PB9RGHUXNVP6,english,male,NA,flowers,NA,3,1564587402984,2,NA,2,These are both,sunflower,NA,warmup
136,NA,small,Wed Jul 31 2019 09:36:42 GMT-0600 (Central Standard Time),images/dog_parade_small.png,5,NA,NA,That ,,2,34YWR3PJ28Y5JKYVQSXERVIGFPEX0I,dogs,mary,3MX2NQ3YCAI71BIPD08SWAAVHR3X58,NA,yes,Another animal belongs to the group.,predicative,You say to your friend:,25,dog,,NA,NA,small,graduated_college,A1PB9RGHUXNVP6,english,male,,NA,You see a group of animals.,1,1564587402984,NA,images/chihuahua.jpg,2, is small.,NA,congruent,main
136,NA,small,Wed Jul 31 2019 09:36:42 GMT-0600 (Central Standard Time),images/bird-parade.png,5,NA,NA,That ,,2,34YWR3PJ28Y5JKYVQSXERVIGFPEX0I,birds,mary,3MX2NQ3YCAI71BIPD08SWAAVHR3X58,NA,yes,Another animal belongs to the group.,predicative,You say to your friend:,25,bird,,NA,NA,big,graduated_college,A1PB9RGHUXNVP6,english,male,,NA,You see a group of animals.,2,1564587402984,NA,images/swan-s.jpg,2, is small.,NA,incongruent,main
136,NA,big,Wed Jul 31 2019 09:36:42 GMT-0600 (Central Standard Time),images/flower-parade.png,5,NA,NA,That ,,2,34YWR3PJ28Y5JKYVQSXERVIGFPEX0I,flowers,mary,3MX2NQ3YCAI71BIPD08SWAAVHR3X58,NA,yes,Another plant belongs to the group.,predicative,You say to your friend:,25,flower,,NA,NA,big,graduated_college,A1PB9RGHUXNVP6,english,male,,NA,You see a group of plants.,3,1564587402984,NA,images/sunflower.png,2, is big.,NA,congruent,main
136,444,NA,Wed Jul 31 2019 09:36:42 GMT-0600 (Central Standard Time),NA,5,images/goldfish.png,swordfish,This is a ,,2,34YWR3PJ28Y5JKYVQSXERVIGFPEX0I,fish,mary,3MX2NQ3YCAI71BIPD08SWAAVHR3X58,goldfish,yes,Please label the pictures below.,NA,NA,25,NA,,images/swordfish.jpg,fish,NA,graduated_college,A1PB9RGHUXNVP6,english,male,NA,fish,NA,1,1564587402984,1,NA,2,These are both,4ty4y,NA,warmup
136,swordfish,NA,Wed Jul 31 2019 09:36:42 GMT-0600 (Central Standard Time),NA,5,images/goldfish.png,swordfish,This is a ,,2,34YWR3PJ28Y5JKYVQSXERVIGFPEX0I,fish,mary,3MX2NQ3YCAI71BIPD08SWAAVHR3X58,goldfish,yes,Please label the pictures below.,NA,NA,25,NA,,images/swordfish.jpg,fish,NA,graduated_college,A1PB9RGHUXNVP6,english,male,NA,fish,NA,1,1564587402984,2,NA,2,These are both,goldfish,NA,warmup
136,derer,NA,Wed Jul 31 2019 09:36:42 GMT-0600 (Central Standard Time),NA,5,images/gorilla.jpg,spider monkey,This is a ,,2,34YWR3PJ28Y5JKYVQSXERVIGFPEX0I,primates,mary,3MX2NQ3YCAI71BIPD08SWAAVHR3X58,gorilla,yes,Please label the pictures below.,NA,NA,25,NA,,images/spidermonkey.jpg,mammal,NA,graduated_college,A1PB9RGHUXNVP6,english,male,NA,monkeys|apes|primates,NA,2,1564587402984,1,NA,2,These are both,4444,NA,warmup
136,spider monkey,NA,Wed Jul 31 2019 09:36:42 GMT-0600 (Central Standard Time),NA,5,images/gorilla.jpg,spider monkey,This is a ,,2,34YWR3PJ28Y5JKYVQSXERVIGFPEX0I,primates,mary,3MX2NQ3YCAI71BIPD08SWAAVHR3X58,gorilla,yes,Please label the pictures below.,NA,NA,25,NA,,images/spidermonkey.jpg,monkeys,NA,graduated_college,A1PB9RGHUXNVP6,english,male,NA,monkeys|apes|primates,NA,2,1564587402984,2,NA,2,These are both,gorilla,NA,warmup
136,ffefef,NA,Wed Jul 31 2019 09:36:42 GMT-0600 (Central Standard Time),NA,5,images/bonsai.jpg,redwood|sequoia,This is a ,,2,34YWR3PJ28Y5JKYVQSXERVIGFPEX0I,trees,mary,3MX2NQ3YCAI71BIPD08SWAAVHR3X58,bonsai,yes,Please label the pictures below.,NA,NA,25,NA,,images/sequoia.jpg,ggg,NA,graduated_college,A1PB9RGHUXNVP6,english,male,NA,trees,NA,3,1564587402984,1,NA,2,These are both,gggg,NA,warmup
136,redwood,NA,Wed Jul 31 2019 09:36:42 GMT-0600 (Central Standard Time),NA,5,images/bonsai.jpg,redwood|sequoia,This is a ,,2,34YWR3PJ28Y5JKYVQSXERVIGFPEX0I,trees,mary,3MX2NQ3YCAI71BIPD08SWAAVHR3X58,bonsai,yes,Please label the pictures below.,NA,NA,25,NA,,images/sequoia.jpg,trees,NA,graduated_college,A1PB9RGHUXNVP6,english,male,NA,trees,NA,3,1564587402984,2,NA,2,These are both,bonsai,NA,warmup
136,NA,small,Wed Jul 31 2019 09:36:42 GMT-0600 (Central Standard Time),images/tree-parade.png,5,NA,NA,That ,,2,34YWR3PJ28Y5JKYVQSXERVIGFPEX0I,trees,mary,3MX2NQ3YCAI71BIPD08SWAAVHR3X58,NA,yes,Another plant belongs to the group.,predicative,You say to your friend:,25,tree,,NA,NA,big,graduated_college,A1PB9RGHUXNVP6,english,male,,NA,You see a group of plants.,1,1564587402984,NA,images/sequoia-s.jpg,2, is small.,NA,incongruent,main
136,NA,big,Wed Jul 31 2019 09:36:42 GMT-0600 (Central Standard Time),images/fish-parade.png,5,NA,NA,That ,,2,34YWR3PJ28Y5JKYVQSXERVIGFPEX0I,fish,mary,3MX2NQ3YCAI71BIPD08SWAAVHR3X58,NA,yes,Another animal belongs to the group.,predicative,You say to your friend:,25,fish,,NA,NA,small,graduated_college,A1PB9RGHUXNVP6,english,male,,NA,You see a group of animals.,2,1564587402984,NA,images/goldfish-b.png,2, is big.,NA,incongruent,main
136,NA,small,Wed Jul 31 2019 09:36:42 GMT-0600 (Central Standard Time),images/monkey-parade-small.png,5,NA,NA,That ,,2,34YWR3PJ28Y5JKYVQSXERVIGFPEX0I,primates,mary,3MX2NQ3YCAI71BIPD08SWAAVHR3X58,NA,yes,Another animal belongs to the group.,predicative,You say to your friend:,25,monkey,,NA,NA,small,graduated_college,A1PB9RGHUXNVP6,english,male,,NA,You see a group of animals.,3,1564587402984,NA,images/spidermonkey.jpg,2, is small.,NA,congruent,main
137,sword fish,NA,Wed Jul 31 2019 12:00:01 GMT-0400 (Eastern Daylight Time),NA,5,images/goldfish.png,swordfish,This is a ,No,2,3EHVO81VN5984JJYH7JS2EDWWR2H1D,fish,jessica,3WMINLGALCRG4JJBH03MQ8578NHACQ,goldfish,yes,Please label the pictures below.,NA,NA,35,NA,none,images/swordfish.jpg,fish,NA,graduated_college,AARRC49LFF1O,English,,NA,fish,NA,1,1564588801582,1,NA,1.1,These are both,gold fish,NA,warmup
137,swordfish,NA,Wed Jul 31 2019 12:00:01 GMT-0400 (Eastern Daylight Time),NA,5,images/goldfish.png,swordfish,This is a ,No,2,3EHVO81VN5984JJYH7JS2EDWWR2H1D,fish,jessica,3WMINLGALCRG4JJBH03MQ8578NHACQ,goldfish,yes,Please label the pictures below.,NA,NA,35,NA,none,images/swordfish.jpg,fish,NA,graduated_college,AARRC49LFF1O,English,,NA,fish,NA,1,1564588801582,2,NA,1.1,These are both,goldfish,NA,warmup
137,Spider monkey,NA,Wed Jul 31 2019 12:00:01 GMT-0400 (Eastern Daylight Time),NA,5,images/gorilla.jpg,spider monkey,This is a ,No,2,3EHVO81VN5984JJYH7JS2EDWWR2H1D,primates,jessica,3WMINLGALCRG4JJBH03MQ8578NHACQ,gorilla,yes,Please label the pictures below.,NA,NA,35,NA,none,images/spidermonkey.jpg,monkeys,NA,graduated_college,AARRC49LFF1O,English,,NA,monkeys|apes|primates,NA,2,1564588801582,1,NA,1.1,These are both,gorilla,NA,warmup
137,swan,NA,Wed Jul 31 2019 12:00:01 GMT-0400 (Eastern Daylight Time),NA,5,images/colibri.jpg,swan,This is a ,No,2,3EHVO81VN5984JJYH7JS2EDWWR2H1D,birds,jessica,3WMINLGALCRG4JJBH03MQ8578NHACQ,hummingbird,yes,Please label the pictures below.,NA,NA,35,NA,none,images/swan.jpg,bird,NA,graduated_college,AARRC49LFF1O,English,,NA,birds,NA,3,1564588801582,1,NA,1.1,These are both,woodpecker,NA,warmup
137,swan,NA,Wed Jul 31 2019 12:00:01 GMT-0400 (Eastern Daylight Time),NA,5,images/colibri.jpg,swan,This is a ,No,2,3EHVO81VN5984JJYH7JS2EDWWR2H1D,birds,jessica,3WMINLGALCRG4JJBH03MQ8578NHACQ,hummingbird,yes,Please label the pictures below.,NA,NA,35,NA,none,images/swan.jpg,birds,NA,graduated_college,AARRC49LFF1O,English,,NA,birds,NA,3,1564588801582,2,NA,1.1,These are both,woodpecker,NA,warmup
137,swan,NA,Wed Jul 31 2019 12:00:01 GMT-0400 (Eastern Daylight Time),NA,5,images/colibri.jpg,swan,This is a ,No,2,3EHVO81VN5984JJYH7JS2EDWWR2H1D,birds,jessica,3WMINLGALCRG4JJBH03MQ8578NHACQ,hummingbird,yes,Please label the pictures below.,NA,NA,35,NA,none,images/swan.jpg,birds,NA,graduated_college,AARRC49LFF1O,English,,NA,birds,NA,3,1564588801582,3,NA,1.1,These are both,woodpecker,NA,warmup
137,swan,NA,Wed Jul 31 2019 12:00:01 GMT-0400 (Eastern Daylight Time),NA,5,images/colibri.jpg,swan,This is a ,No,2,3EHVO81VN5984JJYH7JS2EDWWR2H1D,birds,jessica,3WMINLGALCRG4JJBH03MQ8578NHACQ,hummingbird,yes,Please label the pictures below.,NA,NA,35,NA,none,images/swan.jpg,birds,NA,graduated_college,AARRC49LFF1O,English,,NA,birds,NA,3,1564588801582,4,NA,1.1,These are both,woodpecker,NA,warmup
137,swan,NA,Wed Jul 31 2019 12:00:01 GMT-0400 (Eastern Daylight Time),NA,5,images/colibri.jpg,swan,This is a ,No,2,3EHVO81VN5984JJYH7JS2EDWWR2H1D,birds,jessica,3WMINLGALCRG4JJBH03MQ8578NHACQ,hummingbird,yes,Please label the pictures below.,NA,NA,35,NA,none,images/swan.jpg,birds,NA,graduated_college,AARRC49LFF1O,English,,NA,birds,NA,3,1564588801582,5,NA,1.1,These are both,woodpecker,NA,warmup
137,swan,NA,Wed Jul 31 2019 12:00:01 GMT-0400 (Eastern Daylight Time),NA,5,images/colibri.jpg,swan,This is a ,No,2,3EHVO81VN5984JJYH7JS2EDWWR2H1D,birds,jessica,3WMINLGALCRG4JJBH03MQ8578NHACQ,hummingbird,yes,Please label the pictures below.,NA,NA,35,NA,none,images/swan.jpg,birds,NA,graduated_college,AARRC49LFF1O,English,,NA,birds,NA,3,1564588801582,6,NA,1.1,These are both,woodpecker,NA,warmup
137,swan,NA,Wed Jul 31 2019 12:00:01 GMT-0400 (Eastern Daylight Time),NA,5,images/colibri.jpg,swan,This is a ,No,2,3EHVO81VN5984JJYH7JS2EDWWR2H1D,birds,jessica,3WMINLGALCRG4JJBH03MQ8578NHACQ,hummingbird,yes,Please label the pictures below.,NA,NA,35,NA,none,images/swan.jpg,birds,NA,graduated_college,AARRC49LFF1O,English,,NA,birds,NA,3,1564588801582,7,NA,1.1,These are both,woodpecker,NA,warmup
137,swan,NA,Wed Jul 31 2019 12:00:01 GMT-0400 (Eastern Daylight Time),NA,5,images/colibri.jpg,swan,This is a ,No,2,3EHVO81VN5984JJYH7JS2EDWWR2H1D,birds,jessica,3WMINLGALCRG4JJBH03MQ8578NHACQ,hummingbird,yes,Please label the pictures below.,NA,NA,35,NA,none,images/swan.jpg,birds,NA,graduated_college,AARRC49LFF1O,English,,NA,birds,NA,3,1564588801582,8,NA,1.1,These are both,woodpecker,NA,warmup
137,swan,NA,Wed Jul 31 2019 12:00:01 GMT-0400 (Eastern Daylight Time),NA,5,images/colibri.jpg,swan,This is a ,No,2,3EHVO81VN5984JJYH7JS2EDWWR2H1D,birds,jessica,3WMINLGALCRG4JJBH03MQ8578NHACQ,hummingbird,yes,Please label the pictures below.,NA,NA,35,NA,none,images/swan.jpg,birds,NA,graduated_college,AARRC49LFF1O,English,,NA,birds,NA,3,1564588801582,9,NA,1.1,These are both,woodpecker,NA,warmup
137,swan,NA,Wed Jul 31 2019 12:00:01 GMT-0400 (Eastern Daylight Time),NA,5,images/colibri.jpg,swan,This is a ,No,2,3EHVO81VN5984JJYH7JS2EDWWR2H1D,birds,jessica,3WMINLGALCRG4JJBH03MQ8578NHACQ,hummingbird,yes,Please label the pictures below.,NA,NA,35,NA,none,images/swan.jpg,birds,NA,graduated_college,AARRC49LFF1O,English,,NA,birds,NA,3,1564588801582,10,NA,1.1,These are both,woodpecker,NA,warmup
137,swan,NA,Wed Jul 31 2019 12:00:01 GMT-0400 (Eastern Daylight Time),NA,5,images/colibri.jpg,swan,This is a ,No,2,3EHVO81VN5984JJYH7JS2EDWWR2H1D,birds,jessica,3WMINLGALCRG4JJBH03MQ8578NHACQ,hummingbird,yes,Please label the pictures below.,NA,NA,35,NA,none,images/swan.jpg,birds,NA,graduated_college,AARRC49LFF1O,English,,NA,birds,NA,3,1564588801582,11,NA,1.1,These are both,woodpecker,NA,warmup
137,swan,NA,Wed Jul 31 2019 12:00:01 GMT-0400 (Eastern Daylight Time),NA,5,images/colibri.jpg,swan,This is a ,No,2,3EHVO81VN5984JJYH7JS2EDWWR2H1D,birds,jessica,3WMINLGALCRG4JJBH03MQ8578NHACQ,hummingbird,yes,Please label the pictures below.,NA,NA,35,NA,none,images/swan.jpg,birds,NA,graduated_college,AARRC49LFF1O,English,,NA,birds,NA,3,1564588801582,12,NA,1.1,These are both,woodpecker,NA,warmup
137,swan,NA,Wed Jul 31 2019 12:00:01 GMT-0400 (Eastern Daylight Time),NA,5,images/colibri.jpg,swan,This is a ,No,2,3EHVO81VN5984JJYH7JS2EDWWR2H1D,birds,jessica,3WMINLGALCRG4JJBH03MQ8578NHACQ,hummingbird,yes,Please label the pictures below.,NA,NA,35,NA,none,images/swan.jpg,birds,NA,graduated_college,AARRC49LFF1O,English,,NA,birds,NA,3,1564588801582,13,NA,1.1,These are both,hummingbird,NA,warmup
137,NA,small,Wed Jul 31 2019 12:00:01 GMT-0400 (Eastern Daylight Time),images/bird-parade.png,5,NA,NA,That's a small ,No,2,3EHVO81VN5984JJYH7JS2EDWWR2H1D,birds,jessica,3WMINLGALCRG4JJBH03MQ8578NHACQ,NA,yes,Another animal belongs to the group.,prenominal,You say to your friend:,35,swan,none,NA,NA,big,graduated_college,AARRC49LFF1O,English,,,NA,You see a group of animals.,1,1564588801582,NA,images/swan-s.jpg,1.1,,NA,incongruent,main
137,NA,big,Wed Jul 31 2019 12:00:01 GMT-0400 (Eastern Daylight Time),images/fish-parade.png,5,NA,NA,That's a big ,No,2,3EHVO81VN5984JJYH7JS2EDWWR2H1D,fish,jessica,3WMINLGALCRG4JJBH03MQ8578NHACQ,NA,yes,Another animal belongs to the group.,prenominal,You say to your friend:,35,goldfish,none,NA,NA,small,graduated_college,AARRC49LFF1O,English,,,NA,You see a group of animals.,2,1564588801582,NA,images/goldfish-b.png,1.1,,NA,incongruent,main
137,NA,small,Wed Jul 31 2019 12:00:01 GMT-0400 (Eastern Daylight Time),images/monkey-parade-small.png,5,NA,NA,That's a small ,No,2,3EHVO81VN5984JJYH7JS2EDWWR2H1D,primates,jessica,3WMINLGALCRG4JJBH03MQ8578NHACQ,NA,yes,Another animal belongs to the group.,prenominal,You say to your friend:,35,spider monkey,none,NA,NA,small,graduated_college,AARRC49LFF1O,English,,,NA,You see a group of animals.,3,1564588801582,NA,images/spidermonkey.jpg,1.1,,NA,congruent,main
137,sequoia,NA,Wed Jul 31 2019 12:00:01 GMT-0400 (Eastern Daylight Time),NA,5,images/bonsai.jpg,redwood|sequoia,This is a ,No,2,3EHVO81VN5984JJYH7JS2EDWWR2H1D,trees,jessica,3WMINLGALCRG4JJBH03MQ8578NHACQ,bonsai,yes,Please label the pictures below.,NA,NA,35,NA,none,images/sequoia.jpg,trees,NA,graduated_college,AARRC49LFF1O,English,,NA,trees,NA,1,1564588801582,1,NA,1.1,These are both,bonsai,NA,warmup
137,chihuahua,NA,Wed Jul 31 2019 12:00:01 GMT-0400 (Eastern Daylight Time),NA,5,images/great-dane.jpg,chihuahua,This is a ,No,2,3EHVO81VN5984JJYH7JS2EDWWR2H1D,dogs,jessica,3WMINLGALCRG4JJBH03MQ8578NHACQ,great dane,yes,Please label the pictures below.,NA,NA,35,NA,none,images/chihuahua.jpg,dogs,NA,graduated_college,AARRC49LFF1O,English,,NA,dogs,NA,2,1564588801582,1,NA,1.1,These are both,great dane,NA,warmup
137,Daisy,NA,Wed Jul 31 2019 12:00:01 GMT-0400 (Eastern Daylight Time),NA,5,images/sunflower.png,daisy,This is a ,No,2,3EHVO81VN5984JJYH7JS2EDWWR2H1D,flowers,jessica,3WMINLGALCRG4JJBH03MQ8578NHACQ,sunflower,yes,Please label the pictures below.,NA,NA,35,NA,none,images/daisy.png,flowers,NA,graduated_college,AARRC49LFF1O,English,,NA,flowers,NA,3,1564588801582,1,NA,1.1,These are both,sunflower,NA,warmup
137,NA,big,Wed Jul 31 2019 12:00:01 GMT-0400 (Eastern Daylight Time),images/dog_parade.png,5,NA,NA,That's a big ,No,2,3EHVO81VN5984JJYH7JS2EDWWR2H1D,dogs,jessica,3WMINLGALCRG4JJBH03MQ8578NHACQ,NA,yes,Another animal belongs to the group.,prenominal,You say to your friend:,35,great dane,none,NA,NA,big,graduated_college,AARRC49LFF1O,English,,,NA,You see a group of animals.,1,1564588801582,NA,images/great-dane.jpg,1.1,,NA,congruent,main
137,NA,big,Wed Jul 31 2019 12:00:01 GMT-0400 (Eastern Daylight Time),images/flower-parade.png,5,NA,NA,That's a big ,No,2,3EHVO81VN5984JJYH7JS2EDWWR2H1D,flowers,jessica,3WMINLGALCRG4JJBH03MQ8578NHACQ,NA,yes,Another plant belongs to the group.,prenominal,You say to your friend:,35,sunflower,none,NA,NA,big,graduated_college,AARRC49LFF1O,English,,,NA,You see a group of plants.,2,1564588801582,NA,images/sunflower.png,1.1,,NA,congruent,main
137,NA,big,Wed Jul 31 2019 12:00:01 GMT-0400 (Eastern Daylight Time),images/tree-parade.png,5,NA,NA,That's a big ,No,2,3EHVO81VN5984JJYH7JS2EDWWR2H1D,trees,jessica,3WMINLGALCRG4JJBH03MQ8578NHACQ,NA,yes,Another plant belongs to the group.,prenominal,You say to your friend:,35,bonsai,none,NA,NA,small,graduated_college,AARRC49LFF1O,English,,,NA,You see a group of plants.,3,1564588801582,NA,images/bonsai-b.png,1.1,,NA,incongruent,main
138,white flower,NA,Wed Jul 31 2019 09:02:39 GMT-0700 (Pacific Daylight Time),NA,5,images/sunflower.png,daisy,This is a ,no,2,3FULMHZ7OULBOWHSVMI7SHSVPXB4MM,flowers,susan,3DZQRBDBSM3WRF9M57ECI5VJOGBS36,sunflower,yes,Please label the pictures below.,NA,NA,23,NA,great experiment!,images/daisy.png,flowers,NA,graduated_college,A3KYQ7KI0QNVLV,tagalog,female,NA,flowers,NA,1,1564588959441,1,NA,1.5,These are both,sunflower,NA,warmup
138,daisy,NA,Wed Jul 31 2019 09:02:39 GMT-0700 (Pacific Daylight Time),NA,5,images/sunflower.png,daisy,This is a ,no,2,3FULMHZ7OULBOWHSVMI7SHSVPXB4MM,flowers,susan,3DZQRBDBSM3WRF9M57ECI5VJOGBS36,sunflower,yes,Please label the pictures below.,NA,NA,23,NA,great experiment!,images/daisy.png,flowers,NA,graduated_college,A3KYQ7KI0QNVLV,tagalog,female,NA,flowers,NA,1,1564588959441,2,NA,1.5,These are both,sunflower,NA,warmup
138,big red tree,NA,Wed Jul 31 2019 09:02:39 GMT-0700 (Pacific Daylight Time),NA,5,images/bonsai.jpg,redwood|sequoia,This is a ,no,2,3FULMHZ7OULBOWHSVMI7SHSVPXB4MM,trees,susan,3DZQRBDBSM3WRF9M57ECI5VJOGBS36,bonsai,yes,Please label the pictures below.,NA,NA,23,NA,great experiment!,images/sequoia.jpg,trees,NA,graduated_college,A3KYQ7KI0QNVLV,tagalog,female,NA,trees,NA,2,1564588959441,1,NA,1.5,These are both,bonsai,NA,warmup
138,"redwood,sequoia",NA,Wed Jul 31 2019 09:02:39 GMT-0700 (Pacific Daylight Time),NA,5,images/bonsai.jpg,redwood|sequoia,This is a ,no,2,3FULMHZ7OULBOWHSVMI7SHSVPXB4MM,trees,susan,3DZQRBDBSM3WRF9M57ECI5VJOGBS36,bonsai,yes,Please label the pictures below.,NA,NA,23,NA,great experiment!,images/sequoia.jpg,trees,NA,graduated_college,A3KYQ7KI0QNVLV,tagalog,female,NA,trees,NA,2,1564588959441,2,NA,1.5,These are both,bonsai,NA,warmup
138,"redwood,sequoia",NA,Wed Jul 31 2019 09:02:39 GMT-0700 (Pacific Daylight Time),NA,5,images/bonsai.jpg,redwood|sequoia,This is a ,no,2,3FULMHZ7OULBOWHSVMI7SHSVPXB4MM,trees,susan,3DZQRBDBSM3WRF9M57ECI5VJOGBS36,bonsai,yes,Please label the pictures below.,NA,NA,23,NA,great experiment!,images/sequoia.jpg,trees,NA,graduated_college,A3KYQ7KI0QNVLV,tagalog,female,NA,trees,NA,2,1564588959441,3,NA,1.5,These are both,bonsai,NA,warmup
138,"redwood,sequoia",NA,Wed Jul 31 2019 09:02:39 GMT-0700 (Pacific Daylight Time),NA,5,images/bonsai.jpg,redwood|sequoia,This is a ,no,2,3FULMHZ7OULBOWHSVMI7SHSVPXB4MM,trees,susan,3DZQRBDBSM3WRF9M57ECI5VJOGBS36,bonsai,yes,Please label the pictures below.,NA,NA,23,NA,great experiment!,images/sequoia.jpg,trees,NA,graduated_college,A3KYQ7KI0QNVLV,tagalog,female,NA,trees,NA,2,1564588959441,4,NA,1.5,These are both,bonsai,NA,warmup
138,"redwood,sequoia",NA,Wed Jul 31 2019 09:02:39 GMT-0700 (Pacific Daylight Time),NA,5,images/bonsai.jpg,redwood|sequoia,This is a ,no,2,3FULMHZ7OULBOWHSVMI7SHSVPXB4MM,trees,susan,3DZQRBDBSM3WRF9M57ECI5VJOGBS36,bonsai,yes,Please label the pictures below.,NA,NA,23,NA,great experiment!,images/sequoia.jpg,trees,NA,graduated_college,A3KYQ7KI0QNVLV,tagalog,female,NA,trees,NA,2,1564588959441,5,NA,1.5,These are both,bonsai,NA,warmup
138,"redwood,sequoia",NA,Wed Jul 31 2019 09:02:39 GMT-0700 (Pacific Daylight Time),NA,5,images/bonsai.jpg,redwood|sequoia,This is a ,no,2,3FULMHZ7OULBOWHSVMI7SHSVPXB4MM,trees,susan,3DZQRBDBSM3WRF9M57ECI5VJOGBS36,bonsai,yes,Please label the pictures below.,NA,NA,23,NA,great experiment!,images/sequoia.jpg,trees,NA,graduated_college,A3KYQ7KI0QNVLV,tagalog,female,NA,trees,NA,2,1564588959441,6,NA,1.5,These are both,bonsai,NA,warmup
138,"redwood,sequoia",NA,Wed Jul 31 2019 09:02:39 GMT-0700 (Pacific Daylight Time),NA,5,images/bonsai.jpg,redwood|sequoia,This is a ,no,2,3FULMHZ7OULBOWHSVMI7SHSVPXB4MM,trees,susan,3DZQRBDBSM3WRF9M57ECI5VJOGBS36,bonsai,yes,Please label the pictures below.,NA,NA,23,NA,great experiment!,images/sequoia.jpg,trees,NA,graduated_college,A3KYQ7KI0QNVLV,tagalog,female,NA,trees,NA,2,1564588959441,7,NA,1.5,These are both,bonsai,NA,warmup
138,"redwood,sequoia",NA,Wed Jul 31 2019 09:02:39 GMT-0700 (Pacific Daylight Time),NA,5,images/bonsai.jpg,redwood|sequoia,This is a ,no,2,3FULMHZ7OULBOWHSVMI7SHSVPXB4MM,trees,susan,3DZQRBDBSM3WRF9M57ECI5VJOGBS36,bonsai,yes,Please label the pictures below.,NA,NA,23,NA,great experiment!,images/sequoia.jpg,trees,NA,graduated_college,A3KYQ7KI0QNVLV,tagalog,female,NA,trees,NA,2,1564588959441,8,NA,1.5,These are both,bonsai,NA,warmup
138,"redwood,sequoia",NA,Wed Jul 31 2019 09:02:39 GMT-0700 (Pacific Daylight Time),NA,5,images/bonsai.jpg,redwood|sequoia,This is a ,no,2,3FULMHZ7OULBOWHSVMI7SHSVPXB4MM,trees,susan,3DZQRBDBSM3WRF9M57ECI5VJOGBS36,bonsai,yes,Please label the pictures below.,NA,NA,23,NA,great experiment!,images/sequoia.jpg,trees,NA,graduated_college,A3KYQ7KI0QNVLV,tagalog,female,NA,trees,NA,2,1564588959441,9,NA,1.5,These are both,bonsai,NA,warmup
138,"redwood,sequoia",NA,Wed Jul 31 2019 09:02:39 GMT-0700 (Pacific Daylight Time),NA,5,images/bonsai.jpg,redwood|sequoia,This is a ,no,2,3FULMHZ7OULBOWHSVMI7SHSVPXB4MM,trees,susan,3DZQRBDBSM3WRF9M57ECI5VJOGBS36,bonsai,yes,Please label the pictures below.,NA,NA,23,NA,great experiment!,images/sequoia.jpg,trees,NA,graduated_college,A3KYQ7KI0QNVLV,tagalog,female,NA,trees,NA,2,1564588959441,10,NA,1.5,These are both,bonsai,NA,warmup
138,"redwood,sequoia",NA,Wed Jul 31 2019 09:02:39 GMT-0700 (Pacific Daylight Time),NA,5,images/bonsai.jpg,redwood|sequoia,This is a ,no,2,3FULMHZ7OULBOWHSVMI7SHSVPXB4MM,trees,susan,3DZQRBDBSM3WRF9M57ECI5VJOGBS36,bonsai,yes,Please label the pictures below.,NA,NA,23,NA,great experiment!,images/sequoia.jpg,trees,NA,graduated_college,A3KYQ7KI0QNVLV,tagalog,female,NA,trees,NA,2,1564588959441,11,NA,1.5,These are both,bonsai,NA,warmup
138,"redwood,sequoia",NA,Wed Jul 31 2019 09:02:39 GMT-0700 (Pacific Daylight Time),NA,5,images/bonsai.jpg,redwood|sequoia,This is a ,no,2,3FULMHZ7OULBOWHSVMI7SHSVPXB4MM,trees,susan,3DZQRBDBSM3WRF9M57ECI5VJOGBS36,bonsai,yes,Please label the pictures below.,NA,NA,23,NA,great experiment!,images/sequoia.jpg,trees,NA,graduated_college,A3KYQ7KI0QNVLV,tagalog,female,NA,trees,NA,2,1564588959441,12,NA,1.5,These are both,bonsai,NA,warmup
138,"redwood,sequoia",NA,Wed Jul 31 2019 09:02:39 GMT-0700 (Pacific Daylight Time),NA,5,images/bonsai.jpg,redwood|sequoia,This is a ,no,2,3FULMHZ7OULBOWHSVMI7SHSVPXB4MM,trees,susan,3DZQRBDBSM3WRF9M57ECI5VJOGBS36,bonsai,yes,Please label the pictures below.,NA,NA,23,NA,great experiment!,images/sequoia.jpg,trees,NA,graduated_college,A3KYQ7KI0QNVLV,tagalog,female,NA,trees,NA,2,1564588959441,13,NA,1.5,These are both,bonsai,NA,warmup
138,"redwood,sequoia",NA,Wed Jul 31 2019 09:02:39 GMT-0700 (Pacific Daylight Time),NA,5,images/bonsai.jpg,redwood|sequoia,This is a ,no,2,3FULMHZ7OULBOWHSVMI7SHSVPXB4MM,trees,susan,3DZQRBDBSM3WRF9M57ECI5VJOGBS36,bonsai,yes,Please label the pictures below.,NA,NA,23,NA,great experiment!,images/sequoia.jpg,trees,NA,graduated_college,A3KYQ7KI0QNVLV,tagalog,female,NA,trees,NA,2,1564588959441,14,NA,1.5,These are both,bonsai,NA,warmup
138,redwood,NA,Wed Jul 31 2019 09:02:39 GMT-0700 (Pacific Daylight Time),NA,5,images/bonsai.jpg,redwood|sequoia,This is a ,no,2,3FULMHZ7OULBOWHSVMI7SHSVPXB4MM,trees,susan,3DZQRBDBSM3WRF9M57ECI5VJOGBS36,bonsai,yes,Please label the pictures below.,NA,NA,23,NA,great experiment!,images/sequoia.jpg,trees,NA,graduated_college,A3KYQ7KI0QNVLV,tagalog,female,NA,trees,NA,2,1564588959441,15,NA,1.5,These are both,bonsai,NA,warmup
